time,seconds_elapsed,z,y,x
1788594189329554400,0.161554443359375,7.842731475830078,5.761721134185791,-0.5300164222717285
1788594189339626800,0.171626708984375,7.726163864135742,5.801150798797607,-0.6165069341659546
1788594189349727000,0.18172705078125,7.580940246582031,5.780949592590332,-0.5145289301872253
1788594189359796500,0.19179638671875,7.507169246673584,5.772120952606201,-0.46657004952430725
1788594189369849600,0.201849609375,7.565752029418945,5.771297931671143,-0.4694879949092865
1788594189379946500,0.211946533203125,7.713818550109863,5.779153823852539,-0.48557403683662415
1788594189390002200,0.222002197265625,7.8349504470825195,5.7374796867370605,-0.43851301074028015
1788594189400076500,0.23207666015625,7.960870265960693,5.668646812438965,-0.4321534037590027
1788594189410152400,0.24215234375,8.086715698242188,5.630788326263428,-0.41614219546318054
1788594189420249300,0.252249267578125,8.186972618103027,5.639542102813721,-0.4200327694416046
1788594189430326000,0.262325927734375,8.249297142028809,5.624204158782959,-0.40723875164985657
1788594189440400600,0.272400634765625,8.338930130004883,5.612532615661621,-0.4076128304004669
1788594189450476300,0.282476318359375,8.362497329711914,5.608941078186035,-0.3637690246105194
1788594189460555000,0.292554931640625,8.335638046264648,5.57138204574585,-0.28146833181381226
1788594189470628400,0.30262841796875,8.215778350830078,5.604601860046387,-0.3250128924846649
1788594189480725500,0.3127255859375,8.086490631103516,5.692289352416992,-0.5078700184822083
1788594189490779600,0.322779541015625,7.978452682495117,5.717428684234619,-0.5873275995254517
1788594189500855800,0.332855712890625,7.869067668914795,5.676053524017334,-0.5226841568946838
1788594189510931700,0.342931640625,7.731700420379639,5.696928024291992,-0.4933551847934723
1788594189520985300,0.3529853515625,7.674239635467529,5.7299981117248535,-0.4703109860420227
1788594189531083000,0.3630830078125,7.7854204177856445,5.718850135803223,-0.35815760493278503
1788594189541158700,0.37315869140625,8.006659507751465,5.728875637054443,-0.30279168486595154
1788594189551234600,0.383234619140625,8.132055282592773,5.7258830070495605,-0.31880292296409607
1788594189561310500,0.393310546875,8.187196731567383,5.713986873626709,-0.29403790831565857
1788594189571364600,0.403364501953125,8.22580337524414,5.663932800292969,-0.2861070930957794
1788594189581463600,0.413463623046875,8.25079345703125,5.662885665893555,-0.30526071786880493
1788594189591516000,0.423515869140625,8.204030990600586,5.681889533996582,-0.3181295394897461
1788594189601706000,0.4337060546875,8.117989540100098,5.689895153045654,-0.3034650683403015
1788594189611715600,0.443715576171875,8.062324523925781,5.685181617736816,-0.3404255509376526
1788594189621744600,0.45374462890625,8.004863739013672,5.678073883056641,-0.386813223361969
1788594189631842300,0.46384228515625,7.857769966125488,5.682413101196289,-0.4100818634033203
1788594189641911300,0.473911376953125,7.6933183670043945,5.740771770477295,-0.48317983746528625
1788594189651996700,0.48399658203125,7.638850212097168,5.819631099700928,-0.524330198764801
1788594189662072300,0.494072265625,7.789535045623779,5.8378119468688965,-0.47584760189056396
1788594189672148500,0.5041484375,7.978826999664307,5.808258533477783,-0.40873512625694275
1788594189682223900,0.514223876953125,8.092850685119629,5.744063854217529,-0.38801032304763794
1788594189692299500,0.524299560546875,8.198868751525879,5.6414875984191895,-0.34356793761253357
1788594189702352400,0.534352294921875,8.30750560760498,5.6135053634643555,-0.39309799671173096
1788594189712447500,0.544447509765625,8.403423309326172,5.64687442779541,-0.5365256667137146
1788594189722522600,0.554522705078125,8.400879859924316,5.643507480621338,-0.5783493518829346
1788594189732602400,0.564602294921875,8.221837997436523,5.6438069343566895,-0.5394435524940491
1788594189742666200,0.574666259765625,7.958401203155518,5.617171287536621,-0.43110594153404236
1788594189752750000,0.58475,7.669600486755371,5.640664577484131,-0.3271826207637787
1788594189762828500,0.59482861328125,7.522731304168701,5.669693946838379,-0.26560676097869873
1788594189772905700,0.60490576171875,7.620070457458496,5.7392754554748535,-0.23238719999790192
1788594189782981600,0.614981689453125,7.955183982849121,5.798158168792725,-0.2858826518058777
1788594189793057000,0.62505712890625,8.188918113708496,5.835118293762207,-0.33675941824913025
1788594189803107300,0.635107421875,8.223633766174316,5.7923970222473145,-0.37416884303092957
1788594189813208800,0.645208740234375,8.115595817565918,5.699920654296875,-0.35748425126075745
1788594189823284200,0.6552841796875,7.936778545379639,5.633631229400635,-0.36908116936683655
1788594189833337300,0.66533740234375,7.772850513458252,5.648744583129883,-0.40057986974716187
1788594189843432000,0.675431884765625,7.688978672027588,5.678372859954834,-0.4097077548503876
1788594189853507800,0.6855078125,7.645583629608154,5.730746269226074,-0.4412064850330353
1788594189863562800,0.695562744140625,7.609296798706055,5.7690534591674805,-0.4778676927089691
1788594189873664800,0.705664794921875,7.670348644256592,5.771522521972656,-0.45901334285736084
1788594189883727400,0.715727294921875,7.7655930519104,5.806687355041504,-0.4842272996902466
1788594189893812200,0.725812255859375,7.8203606605529785,5.809455394744873,-0.5214870572090149
1788594189903890700,0.735890625,7.820809364318848,5.754388809204102,-0.5014356374740601
1788594189913966600,0.745966552734375,7.782726764678955,5.717353820800781,-0.5169979333877563
1788594189924042500,0.75604248046875,7.7661919593811035,5.6897454261779785,-0.5123591423034668
1788594189934118400,0.766118408203125,7.810110569000244,5.706056118011475,-0.452279657125473
1788594189944179700,0.7761796875,7.851634979248047,5.749151706695557,-0.44502225518226624
1788594189954244000,0.786244140625,7.825448036193848,5.766808986663818,-0.40783730149269104
1788594189964353800,0.796353759765625,7.90123987197876,5.73209285736084,-0.3414730131626129
1788594189974435600,0.806435546875,8.122179985046387,5.740098476409912,-0.3506008982658386
1788594189984502800,0.816502685546875,8.222137451171875,5.780126571655273,-0.39137715101242065
1788594189994548200,0.82654833984375,8.229394912719727,5.768155574798584,-0.3783586919307709
1788594190004646400,0.836646484375,8.15300464630127,5.772495269775391,-0.3553893268108368
1788594190014712800,0.846712890625,7.979275703430176,5.790900707244873,-0.3461117744445801
1788594190024774700,0.856774658203125,7.775020599365234,5.780575752258301,-0.35015198588371277
1788594190034851000,0.86685107421875,7.599645137786865,5.7369561195373535,-0.356885701417923
1788594190044926500,0.876926513671875,7.581613540649414,5.699097633361816,-0.4322282373905182
1788594190055002400,0.88700244140625,7.7230963706970215,5.7264814376831055,-0.5413140654563904
1788594190065078000,0.897078125,7.760804653167725,5.761571407318115,-0.6105214357376099
1788594190075153700,0.907153564453125,7.778162956237793,5.794267177581787,-0.6796540021896362
1788594190085255700,0.917255615234375,7.822530269622803,5.800252914428711,-0.6523451209068298
1788594190095332000,0.92733203125,7.81721830368042,5.7813239097595215,-0.5745335817337036
1788594190105381000,0.937381103515625,7.838167667388916,5.758130073547363,-0.4661211371421814
1788594190115478800,0.947478759765625,7.93019437789917,5.7608232498168945,-0.45572131872177124
1788594190125555500,0.957555419921875,7.93939733505249,5.7718963623046875,-0.5153518915176392
1788594190135624200,0.967624267578125,7.951443195343018,5.738677024841309,-0.5442319512367249
1788594190145684200,0.977684326171875,7.995810508728027,5.726780891418457,-0.5205892324447632
1788594190155780900,0.98778076171875,8.025289535522461,5.759326934814453,-0.5563526153564453
1788594190165835000,0.9978349609375,8.039579391479492,5.760673522949219,-0.5779004096984863
1788594190175932700,1.0079326171875,8.056563377380371,5.7556610107421875,-0.5526865124702454
1788594190186010400,1.01801025390625,8.07122802734375,5.7387518882751465,-0.5122095346450806
1788594190196087800,1.028087890625,7.963862895965576,5.747655391693115,-0.458040714263916
1788594190206160400,1.038160400390625,7.699902534484863,5.767856121063232,-0.39960724115371704
1788594190216236500,1.048236572265625,7.377732753753662,5.7567830085754395,-0.3256114423274994
1788594190226311400,1.0583115234375,7.285555839538574,5.780351161956787,-0.33346739411354065
1788594190236387000,1.068386962890625,7.51083517074585,5.835118293762207,-0.3770119547843933
1788594190246463200,1.078463134765625,7.899593830108643,5.901407718658447,-0.4462193548679352
1788594190256541400,1.08854150390625,7.976133346557617,5.873575210571289,-0.3958662748336792
1788594190266614500,1.098614501953125,7.821632385253906,5.794940948486328,-0.318054735660553
1788594190276673800,1.108673828125,7.575927734375,5.725957870483398,-0.32104748487472534
1788594190286765800,1.118765869140625,7.66653299331665,5.688623428344727,-0.43020811676979065
1788594190296849400,1.128849365234375,8.096965789794922,5.732691287994385,-0.5582230687141418
1788594190306917600,1.138917724609375,8.397064208984375,5.777657508850098,-0.7190834879875183
1788594190316993300,1.1489931640625,8.3992338180542,5.770699501037598,-0.7668927311897278
1788594190327069000,1.15906884765625,8.118438720703125,5.654580593109131,-0.6852654218673706
1788594190337128200,1.169128173828125,7.667057037353516,5.567266941070557,-0.615833580493927
1788594190347220700,1.179220703125,7.351545810699463,5.581632137298584,-0.6168810129165649
1788594190357296600,1.189296630859375,7.354014873504639,5.680168628692627,-0.7262661457061768
1788594190367372000,1.1993720703125,7.591489791870117,5.808333396911621,-0.8625859618186951
1788594190377448000,1.209447998046875,7.801207065582275,5.869086265563965,-0.9132382869720459
1788594190387524900,1.21952490234375,7.870938301086426,5.822548866271973,-0.8743325471878052
1788594190397600000,1.22960009765625,7.8314337730407715,5.707327842712402,-0.7971943616867065
1788594190407666000,1.239666015625,7.86233377456665,5.599588871002197,-0.721477746963501
1788594190417751300,1.249751220703125,8.011298179626465,5.646574974060059,-0.7641992568969727
1788594190427828200,1.259828125,8.09778881072998,5.746084213256836,-0.7735515832901001
1788594190437902800,1.26990283203125,8.010475158691406,5.775487899780273,-0.7467664480209351
1788594190447978500,1.279978515625,7.949273586273193,5.7125654220581055,-0.6358101963996887
1788594190458054400,1.290054443359375,7.949572563171387,5.711069107055664,-0.5761796236038208
1788594190468108300,1.3001083984375,7.912387847900391,5.739500045776367,-0.5686977505683899
1788594190478206000,1.3102060546875,8.073921203613281,5.742268085479736,-0.5167734622955322
1788594190488281300,1.32028125,8.211587905883789,5.724611282348633,-0.47322893142700195
1788594190498336500,1.33033642578125,8.289250373840332,5.701866149902344,-0.4198082983493805
1788594190508433200,1.34043310546875,8.23351001739502,5.679869651794434,-0.36833298206329346
1788594190518508800,1.3505087890625,8.231639862060547,5.907243728637695,-0.45429977774620056
1788594190528585500,1.36058544921875,8.204180717468262,5.8167877197265625,-0.30780455470085144
1788594190538664400,1.37066455078125,8.03232192993164,5.777882099151611,-0.06262333691120148
1788594190548741400,1.380741455078125,7.884929180145264,5.739799499511719,-0.20193594694137573
1788594190558814000,1.39081396484375,7.7177839279174805,5.660641193389893,-0.026186581701040268
1788594190568887800,1.4008876953125,7.627702236175537,5.683385848999023,-0.09733926504850388
1788594190578964000,1.4109638671875,7.560290336608887,5.726706027984619,-0.16048632562160492
1788594190589039400,1.421039306640625,7.492504596710205,5.810503005981445,-0.24338556826114655
1788594190599115000,1.431114990234375,7.68538761138916,5.808333396911621,-0.3802291452884674
1788594190609190700,1.441190673828125,8.151658058166504,5.807360649108887,-0.3330933153629303
1788594190619266300,1.451266357421875,8.465971946716309,5.873650074005127,-0.2240823209285736
1788594190629345000,1.461344970703125,8.450484275817871,5.878288745880127,-0.20133739709854126
1788594190639418400,1.47141845703125,8.272939682006836,5.740472793579102,-0.021098902449011803
1788594190649480000,1.48147998046875,8.050652503967285,5.668497085571289,0.11671733111143112
1788594190659571200,1.4915712890625,7.980772018432617,5.6455278396606445,0.07429507374763489
1788594190669648000,1.50164794921875,7.8553009033203125,5.648595333099365,0.07242459803819656
1788594190679726600,1.5117265625,7.757737159729004,5.721543312072754,-0.003217208432033658
1788594190689799400,1.52179931640625,7.675586223602295,5.8052659034729,-0.08132804185152054
1788594190699851000,1.53185107421875,7.6035356521606445,5.840954303741455,-0.11065700650215149
1788594190709948700,1.54194873046875,7.688305377960205,5.846042156219482,-0.10975918173789978
1788594190720024000,1.552024169921875,7.71239709854126,5.861379623413086,-0.050128597766160965
1788594190730100500,1.5621005859375,7.495646953582764,5.884872913360596,-0.11956045031547546
1788594190740176000,1.57217578125,7.264756202697754,5.830479621887207,-0.1702127754688263
1788594190750251500,1.58225146484375,7.261164665222168,5.816189289093018,-0.18697218596935272
1788594190760328200,1.592328125,7.3623199462890625,5.855020046234131,-0.2265513390302658
1788594190770403300,1.6024033203125,7.476792812347412,5.881730556488037,-0.24241292476654053
1788594190780479000,1.61247900390625,7.787664890289307,5.8885393142700195,-0.17552490532398224
1788594190790557700,1.6225576171875,8.11290168762207,5.897741794586182,-0.11342530697584152
1788594190800619300,1.632619384765625,8.26119327545166,5.863699436187744,-0.12853869795799255
1788594190810725600,1.6427255859375,8.218545913696289,5.821650981903076,-0.11065700650215149
1788594190820782300,1.6527822265625,8.107515335083008,5.711817264556885,-0.17664720118045807
1788594190830854100,1.662854248046875,8.054468154907227,5.630189895629883,-0.12674304842948914
1788594190840933400,1.672933349609375,7.956830024719238,5.719673156738281,-0.1868225485086441
1788594190851009500,1.683009521484375,7.914183139801025,5.796362400054932,-0.25670331716537476
1788594190861085400,1.69308544921875,7.903484344482422,5.825990676879883,-0.21113866567611694
1788594190871160800,1.703160888671875,7.750329971313477,5.865943908691406,-0.19363106787204742
1788594190881236700,1.71323681640625,7.54899263381958,5.915698528289795,-0.2546831965446472
1788594190891312400,1.7233125,7.435417652130127,5.9070940017700195,-0.2876783013343811
1788594190901388000,1.733387939453125,7.491606712341309,5.879934787750244,-0.3167079985141754
1788594190911466000,1.743466064453125,7.6338372230529785,5.860257625579834,-0.3304746448993683
1788594190921541000,1.753541015625,7.823503017425537,5.867290496826172,-0.4016273319721222
1788594190931701200,1.763701171875,8.106766700744629,5.818358898162842,-0.444722980260849
1788594190941699000,1.773698974609375,8.302193641662598,5.7626190185546875,-0.38135144114494324
1788594190951762400,1.783762451171875,8.227898597717285,5.738826751708984,-0.45998600125312805
1788594190961843700,1.79384375,7.981520175933838,5.739425182342529,-0.5187187790870667
1788594190971922400,1.80392236328125,7.867047309875488,5.7043352127075195,-0.5053262114524841
1788594190981998300,1.813998291015625,7.857395648956299,5.726930618286133,-0.46484923362731934
1788594190992074200,1.82407421875,7.917999267578125,5.773766994476318,-0.47075989842414856
1788594191002124500,1.83412451171875,8.005087852478027,5.7790045738220215,-0.4985924959182739
1788594191012226300,1.844226318359375,8.075343132019043,5.716455936431885,-0.37020343542099
1788594191022302000,1.854302001953125,8.14140796661377,5.718700408935547,-0.2892494797706604
1788594191032373200,1.864373291015625,8.00112247467041,5.7602996826171875,-0.34581249952316284
1788594191042449000,1.874448974609375,7.733870029449463,5.749600410461426,-0.5370493531227112
1788594191052525000,1.884525146484375,7.44641637802124,5.6851067543029785,-0.5172224044799805
1788594191062604500,1.8946044921875,7.408857345581055,5.735384941101074,-0.5313631296157837
1788594191072666000,1.904666015625,7.592761993408203,5.787084579467773,-0.47569796442985535
1788594191082752300,1.914752197265625,7.772027492523193,5.79718542098999,-0.4489128291606903
1788594191092830200,1.924830322265625,7.9328131675720215,5.730596542358398,-0.3949684500694275
1788594191102908000,1.934907958984375,7.9479265213012695,5.678822040557861,-0.30211833119392395
1788594191112984000,1.944984130859375,7.854477882385254,5.66924524307251,-0.3711012601852417
1788594191123052500,1.955052490234375,7.886425495147705,5.689895153045654,-0.41285014152526855
1788594191133134800,1.965134765625,7.977106094360352,5.714136600494385,-0.40836101770401
1788594191143185400,1.975185302734375,8.03658676147461,5.719074726104736,-0.4428524971008301
1788594191153287000,1.985286865234375,8.085817337036133,5.686977386474609,-0.4324526786804199
1788594191163379700,1.995379638671875,7.9841389656066895,5.713986873626709,-0.422352135181427
1788594191173434000,2.00543408203125,7.873406887054443,5.683535575866699,-0.38389527797698975
1788594191183510300,2.01551025390625,7.834725856781006,5.699247360229492,-0.4480898082256317
1788594191193593900,2.02559375,7.783923625946045,5.750797748565674,-0.5169231295585632
1788594191203667200,2.035667236328125,7.7346930503845215,5.7544636726379395,-0.5716156363487244
1788594191213741800,2.045741943359375,7.704989910125732,5.722142219543457,-0.5728875994682312
1788594191223815000,2.05581494140625,7.770306587219238,5.70545768737793,-0.5539584159851074
1788594191233892400,2.065892333984375,7.7375359535217285,5.658321857452393,-0.47165772318840027
1788594191243969000,2.075968994140625,7.732298851013184,5.639616966247559,-0.32374095916748047
1788594191254045000,2.086044921875,7.984737396240234,5.659144401550293,-0.2231096774339676
1788594191264120000,2.0961201171875,8.219743728637695,5.6664018630981445,-0.30630818009376526
1788594191274179000,2.106178955078125,8.355315208435059,5.5452704429626465,-0.3480570614337921
1788594191284246000,2.11624609375,8.481459617614746,5.345579147338867,-0.22423195838928223
1788594191294352400,2.126352294921875,8.499266624450684,5.301884651184082,-0.30211833119392395
1788594191304434700,2.1364345703125,8.43200397491455,5.316549301147461,-0.4093336760997772
1788594191314503400,2.14650341796875,8.385092735290527,5.32620096206665,-0.4676175117492676
1788594191324549400,2.15654931640625,8.375066757202148,5.3243303298950195,-0.5678747296333313
1788594191334630700,2.166630615234375,8.195950508117676,5.29155969619751,-0.5900210738182068
1788594191344710100,2.176710205078125,8.034117698669434,5.299864768981934,-0.6943933367729187
1788594191354777300,2.18677734375,8.116718292236328,5.284526824951172,-0.6804770231246948
1788594191364852700,2.196852783203125,8.158391952514648,5.237316131591797,-0.5316624045372009
1788594191374928600,2.2069287109375,8.23006820678711,5.1793317794799805,-0.3471592366695404
1788594191385004500,2.217004638671875,8.377161979675293,5.142446041107178,-0.12173019349575043
1788594191395080200,2.227080078125,8.446444511413574,5.161674499511719,-0.09681553393602371
1788594191405181700,2.237181640625,8.455272674560547,5.084087371826172,-0.10437223315238953
1788594191415257900,2.2472578125,8.409184455871582,4.977919578552246,-0.15607202053070068
1788594191425307100,2.25730712890625,8.274809837341309,4.972083568572998,-0.27974751591682434
1788594191435405600,2.267405517578125,8.23044204711914,4.944849491119385,-0.36092591285705566
1788594191445493800,2.27749365234375,8.289698600769043,4.869581699371338,-0.30548515915870667
1788594191455559400,2.287559326171875,8.30825424194336,4.8226704597473145,-0.24009354412555695
1788594191465636900,2.297636962890625,8.228571891784668,4.802394390106201,-0.24862287938594818
1788594191475731700,2.307731689453125,8.128015518188477,4.821099281311035,-0.2505681812763214
1788594191485783000,2.317782958984375,8.0029935836792,4.909310817718506,-0.2961328327655792
1788594191495876400,2.32787646484375,7.843255043029785,4.987870216369629,-0.36077627539634705
1788594191505937400,2.3379375,7.7563157081604,4.981360912322998,-0.30795419216156006
1788594191516012800,2.3480126953125,7.765069484710693,4.935945987701416,-0.29867666959762573
1788594191526088200,2.358088134765625,7.87310791015625,4.846837043762207,-0.3150619864463806
1788594191536142000,2.36814208984375,7.9858598709106445,4.768426895141602,-0.32785600423812866
1788594191546238000,2.378238037109375,8.258499145507812,4.735057830810547,-0.33780691027641296
1788594191556314000,2.388314208984375,8.497321128845215,4.733710765838623,-0.37334582209587097
1788594191566389500,2.398389404296875,8.5927152633667,4.73303747177124,-0.4106804132461548
1788594191576444200,2.408444091796875,8.454299926757812,4.706252574920654,-0.40791210532188416
1788594191586519600,2.41851953125,8.258424758911133,4.669890403747559,-0.4455459713935852
1788594191596595000,2.428594970703125,8.22924518585205,4.6728081703186035,-0.5588964819908142
1788594191606671400,2.43867138671875,8.3992338180542,4.7241339683532715,-0.665513277053833
1788594191616768500,2.4487685546875,8.399308204650879,4.882151126861572,-0.9512462615966797
1788594191626849500,2.458849609375,8.257002830505371,4.915595531463623,-1.0365396738052368
1788594191636920600,2.468920654296875,7.970671653747559,4.678868770599365,-0.7382371425628662
1788594191646996000,2.478995849609375,7.825822353363037,4.866364479064941,-1.0662428140640259
1788594191657071600,2.489071533203125,7.836970329284668,4.933701515197754,-1.1471219062805176
1788594191667128600,2.499128662109375,8.069432258605957,4.659565448760986,-0.8616881370544434
1788594191677223200,2.50922314453125,8.295235633850098,4.729146957397461,-0.7690624594688416
1788594191687298800,2.519298828125,8.464251518249512,4.820650100708008,-0.782380223274231
1788594191697354000,2.52935400390625,8.585831642150879,4.779724597930908,-0.6493523716926575
1788594191707451000,2.539450927734375,8.640374183654785,4.795810222625732,-0.6807762980461121
1788594191717527000,2.549527099609375,8.532635688781738,4.898985385894775,-0.8445546627044678
1788594191727601700,2.5596015625,8.464101791381836,4.892177104949951,-0.9493758082389832
1788594191737666000,2.569666015625,8.47667121887207,4.775235176086426,-0.9680056571960449
1788594191747753000,2.5797529296875,8.484526634216309,4.696301460266113,-0.9433154463768005
1788594191757831400,2.58983154296875,8.441805839538574,4.670863151550293,-0.9074772596359253
1788594191767904500,2.599904541015625,8.367585182189941,4.582876205444336,-0.8073697090148926
1788594191777981000,2.60998095703125,8.154426574707031,4.5883378982543945,-0.6334159970283508
1788594191788056600,2.620056640625,7.954136371612549,4.450372219085693,-0.494253009557724
1788594191798132000,2.630132080078125,7.5650787353515625,3.596764326095581,0.4961234927177429
1788594191808208100,2.6402080078125,7.614983081817627,3.699490547180176,0.3125929534435272
1788594191818284000,2.650283935546875,7.418434143066406,4.0947585105896,-0.03681085258722305
1788594191828364000,2.660364013671875,7.288473606109619,4.609661102294922,-0.8132055997848511
1788594191838435600,2.670435546875,7.707982540130615,5.008969306945801,-1.273640513420105
1788594191848511000,2.680510986328125,8.106616973876953,5.275698184967041,-1.513733983039856
1788594191858587100,2.690587158203125,8.362347602844238,5.20289945602417,-1.3491326570510864
1788594191868665900,2.700665771484375,8.295011520385742,4.963254928588867,-1.1895442008972168
1788594191878742500,2.710742431640625,8.053121566772461,4.724358558654785,-1.134926438331604
1788594191888816600,2.720816650390625,7.768660545349121,4.590432643890381,-1.0831518173217773
1788594191898890000,2.730889892578125,7.528791904449463,4.592752456665039,-1.0081833600997925
1788594191908966100,2.740966064453125,7.3670334815979,4.712462425231934,-0.9329156279563904
1788594191919041500,2.75104150390625,7.319523334503174,4.748674392700195,-0.8191162347793579
1788594191929117200,2.7611171875,7.38132381439209,4.707674026489258,-0.6954407691955566
1788594191939193000,2.771193115234375,7.562385559082031,4.636371612548828,-0.6451625227928162
1788594191949268500,2.7812685546875,7.609820365905762,4.502894878387451,-0.5354033708572388
1788594191959348000,2.791347900390625,7.379827499389648,4.417227268218994,-0.5242553353309631
1788594191969420300,2.801420166015625,7.526173114776611,4.575095176696777,-0.6911761164665222
1788594191979496400,2.811496337890625,7.815796852111816,4.746729373931885,-0.8692448735237122
1788594191989582600,2.82158251953125,8.133776664733887,4.858209133148193,-0.9498994946479797
1788594191999668700,2.831668701171875,8.383746147155762,4.873023509979248,-0.8684218525886536
1788594192009726200,2.841726318359375,8.717886924743652,4.851999282836914,-0.728884756565094
1788594192019801900,2.8518017578125,9.129240989685059,4.801870822906494,-0.45736733078956604
1788594192029854000,2.86185400390625,9.139790534973145,4.739397048950195,-0.3729717433452606
1788594192039950800,2.871950927734375,8.942268371582031,4.712911128997803,-0.23747487366199493
1788594192050026500,2.882026611328125,8.592041969299316,4.654702186584473,-0.08716390281915665
1788594192060102400,2.892102294921875,8.246528625488281,4.748749256134033,-0.26919806003570557
1788594192070168300,2.902168212890625,7.923610687255859,4.791919708251953,-0.5315876007080078
1788594192080254500,2.91225439453125,8.01488971710205,4.911854267120361,-0.7784896492958069
1788594192090330600,2.92233056640625,8.201188087463379,5.08378791809082,-1.0910825729370117
1788594192100405200,2.9324052734375,8.362946510314941,5.185018062591553,-1.374197006225586
1788594192110482000,2.94248193359375,8.560243606567383,5.151723384857178,-1.2523170709609985
1788594192120559600,2.9525595703125,8.83123779296875,5.030517101287842,-0.9519196152687073
1788594192130632700,2.9626328125,8.976012229919434,4.909534931182861,-0.5662286877632141
1788594192140725800,2.972725830078125,9.08255386352539,4.897563934326172,-0.2611176371574402
1788594192150785000,2.982784912109375,9.127594947814941,5.042712688446045,0.11559505015611649
1788594192160846000,2.99284619140625,9.01671314239502,5.160552024841309,0.3446902334690094
1788594192170936000,3.00293603515625,8.829292297363281,5.185990333557129,0.1521066278219223
1788594192181011700,3.01301171875,8.61935043334961,4.925995349884033,0.37723639607429504
1788594192191087600,3.023087646484375,8.435819625854492,5.091943264007568,0.1273415982723236
1788594192201163000,3.0331630859375,8.183156967163086,5.158232688903809,-0.1662473827600479
1788594192211239000,3.043239013671875,7.761552810668945,4.969016075134277,-0.1429039090871811
1788594192221314600,3.053314453125,7.61797571182251,4.874819278717041,-0.04967968538403511
1788594192231390500,3.063390380859375,7.7159881591796875,4.970138072967529,-0.16303017735481262
1788594192241466600,3.073466552734375,8.230517387390137,4.934449672698975,-0.058957215398550034
1788594192251545300,3.08354541015625,8.827945709228516,4.721664905548096,0.1669207513332367
1788594192261714000,3.0937138671875,9.323470115661621,4.574047565460205,0.40297406911849976
1788594192271690200,3.103690185546875,9.476175308227539,4.473042011260986,0.6205471754074097
1788594192281774600,3.113774658203125,9.285238265991211,4.474463939666748,0.6702268123626709
1788594192291845600,3.123845703125,8.973767280578613,4.5144171714782715,0.8089408874511719
1788594192301924900,3.1339248046875,8.56076717376709,4.537386417388916,0.9276783466339111
1788594192312001800,3.144001708984375,8.316484451293945,4.512022972106934,1.0407295227050781
1788594192322076000,3.154075927734375,8.125322341918945,4.435184001922607,1.2069768905639648
1788594192332150000,3.16414990234375,7.865850448608398,4.381014823913574,1.3402292728424072
1788594192342228000,3.17422802734375,7.626804351806641,4.351686000823975,1.2884546518325806
1788594192352284400,3.184284423828125,7.394641399383545,4.387449264526367,1.0669909715652466
1788594192362354200,3.194354248046875,7.1973443031311035,4.3704657554626465,0.7464671730995178
1788594192372456200,3.204456298828125,7.115866661071777,4.3232550621032715,0.36332011222839355
1788594192382532000,3.214531982421875,7.215226173400879,4.313079357147217,-0.13497312366962433
1788594192392606700,3.224606689453125,7.504026889801025,4.390741348266602,-0.6227917075157166
1788594192402682400,3.234682373046875,8.028282165527344,4.470199108123779,-0.8274211287498474
1788594192412759300,3.24475927734375,8.472929954528809,4.212747573852539,-0.6298995018005371
1788594192422837500,3.25483740234375,8.922516822814941,3.5051112174987793,0.003441664855927229
1788594192432910300,3.264910400390625,9.009979248046875,3.218106269836426,0.186074361205101
1788594192442986500,3.274986572265625,8.703895568847656,3.200449228286743,0.3770119547843933
1788594192453062400,3.2850625,8.69559097290039,2.6274118423461914,1.6790087223052979
1788594192463138000,3.295137939453125,8.60423755645752,2.79089093208313,2.3237972259521484
1788594192473213000,3.305212890625,8.343792915344238,3.224465847015381,2.15029239654541
1788594192483289900,3.315289794921875,8.328454971313477,3.6448729038238525,1.4756512641906738
1788594192493365800,3.32536572265625,8.25423526763916,3.9740755558013916,0.6036381125450134
1788594192503440100,3.335440185546875,8.196624755859375,4.119373798370361,-0.0293289702385664
1788594192513517000,3.34551708984375,8.344765663146973,4.132317543029785,-0.13594576716423035
1788594192523591700,3.355591796875,8.581043243408203,4.068122863769531,-0.040476974099874496
1788594192533667600,3.36566748046875,9.467347145080566,4.097526550292969,0.20702363550662994
1788594192543736300,3.375736328125,10.300529479980469,4.200926303863525,0.44187983870506287
1788594192553820400,3.3858203125,10.065896987915039,4.056750297546387,0.6617723107337952
1788594192563895300,3.395895263671875,9.215058326721191,3.6985926628112793,1.1729344129562378
1788594192573971200,3.40597119140625,8.352472305297852,3.3092355728149414,1.6912041902542114
1788594192584047000,3.416047119140625,8.018181800842285,2.958634853363037,2.033350706100464
1788594192594123500,3.42612353515625,8.301594734191895,2.6548705101013184,2.283918857574463
1788594192604179500,3.436179443359375,8.360103607177734,2.6634745597839355,2.286088466644287
1788594192614249000,3.4462490234375,7.9432878494262695,2.8387749195098877,2.0498106479644775
1788594192624349700,3.456349609375,7.539041996002197,3.0254478454589844,1.7072902917861938
1788594192634442000,3.46644189453125,7.396586894989014,3.267636299133301,1.2029367685317993
1788594192644514800,3.476514892578125,8.116044044494629,3.5838205814361572,0.6346879005432129
1788594192654551600,3.486551513671875,9.182886123657227,4.0084919929504395,-0.10863690078258514
1788594192664627700,3.496627685546875,10.499322891235352,4.39156436920166,-0.9403226971626282
1788594192674703600,3.50670361328125,12.057049751281738,4.4915971755981445,-2.027963638305664
1788594192684784600,3.51678466796875,12.844143867492676,4.417077541351318,-2.9781625270843506
1788594192694855000,3.52685498046875,12.842048645019531,4.492046356201172,-3.6057426929473877
1788594192704931000,3.53693115234375,12.272153854370117,4.006546974182129,-3.2288055419921875
1788594192715006500,3.54700634765625,11.924546241760254,3.015796422958374,-2.004096508026123
1788594192725082400,3.557082275390625,11.718420028686523,2.401459217071533,-1.1778724193572998
1788594192735158000,3.567157958984375,10.962450981140137,2.2498762607574463,-1.0443956851959229
1788594192745233700,3.577233642578125,10.269254684448242,2.269329071044922,-1.5884779691696167
1788594192755335700,3.587335693359375,9.433005332946777,2.3063645362854004,-2.3850739002227783
1788594192765411300,3.597411376953125,8.500389099121094,2.3552958965301514,-3.2456395626068115
1788594192775487200,3.6074873046875,8.126818656921387,2.547804594039917,-4.453888416290283
1788594192785561300,3.617561279296875,8.2057523727417,2.8003182411193848,-5.396081924438477
1788594192795638800,3.627638671875,8.470311164855957,2.8984804153442383,-5.936198711395264
1788594192805714400,3.63771435546875,8.618602752685547,2.6531496047973633,-5.978695869445801
1788594192815790300,3.647790283203125,8.612915992736816,2.318185806274414,-5.881281852722168
1788594192825866000,3.657865966796875,8.865055084228516,2.143334150314331,-5.850905418395996
1788594192835942000,3.66794189453125,9.417966842651367,2.174758195877075,-5.877017021179199
1788594192846017300,3.678017333984375,10.421062469482422,2.215758800506592,-5.935600280761719
1788594192856093400,3.688093505859375,10.747945785522461,2.1391444206237793,-5.896694183349609
1788594192866170400,3.69817041015625,10.497676849365234,2.001178503036499,-5.9537811279296875
1788594192876245200,3.708245361328125,9.844733238220215,1.9757400751113892,-6.123320579528809
1788594192886320400,3.7183203125,9.140538215637207,2.0329017639160156,-6.125041484832764
1788594192896395800,3.728395751953125,8.495450973510742,2.0872201919555664,-5.759326934814453
1788594192906472200,3.73847216796875,8.174477577209473,2.4601919651031494,-5.12695837020874
1788594192916548000,3.748548095703125,7.660846710205078,2.7216835021972656,-4.676773548126221
1788594192926623500,3.75862353515625,6.945205211639404,2.481440305709839,-4.475885391235352
1788594192936699600,3.76869970703125,6.146514415740967,2.0923078060150146,-4.627617835998535
1788594192946775300,3.778775390625,5.874547958374023,2.17535662651062,-4.931830883026123
1788594192956851200,3.788851318359375,5.8488850593566895,2.474257707595825,-5.690718173980713
1788594192966926300,3.79892626953125,5.79142427444458,2.7689690589904785,-6.3372273445129395
1788594192977003300,3.809003173828125,5.962759494781494,2.9438953399658203,-6.773944854736328
1788594192987078100,3.819078125,6.276249885559082,2.866457939147949,-7.057358264923096
1788594192997166800,3.829166748046875,6.944681167602539,2.519822359085083,-7.250166416168213
1788594193007230500,3.83923046875,7.9176249504089355,2.247781276702881,-7.552584171295166
1788594193017280500,3.849280517578125,8.602665901184082,2.23124623298645,-8.01616096496582
1788594193027355100,3.859355224609375,8.862287521362305,2.516904592514038,-8.324938774108887
1788594193037457200,3.86945703125,8.878448486328125,2.8557589054107666,-8.233659744262695
1788594193047532300,3.8795322265625,9.012823104858398,3.123460531234741,-7.7218241691589355
1788594193057608400,3.8896083984375,9.420061111450195,3.297938108444214,-6.996530532836914
1788594193067683800,3.899683837890625,9.611448287963867,3.384578227996826,-6.304381847381592
1788594193077760500,3.909760498046875,9.33588981628418,3.5109472274780273,-5.8221001625061035
1788594193087836000,3.9198359375,8.461932182312012,3.5412487983703613,-5.37326192855835
1788594193097911300,3.929911376953125,7.4660186767578125,3.1687259674072266,-4.731466293334961
1788594193107988000,3.939988037109375,6.208913326263428,3.5110220909118652,-5.057900905609131
1788594193118063600,3.950063720703125,3.4868555068969727,3.8889317512512207,-5.884798049926758
1788594193128139000,3.960138916015625,-0.4537760317325592,4.982333660125732,-8.016610145568848
1788594193138215200,3.970215087890625,-0.3886836767196655,6.199560642242432,-9.561393737792969
1788594193148290300,3.980290283203125,0.7939023375511169,6.0149827003479,-8.849343299865723
1788594193158366700,3.99036669921875,3.0249991416931152,4.597316265106201,-6.859836578369141
1788594193168442000,4.000442138671875,4.753462791442871,3.885938882827759,-6.672041416168213
1788594193178518300,4.010518310546875,6.562506675720215,3.8763620853424072,-7.463474750518799
1788594193188594000,4.020593994140625,6.5417070388793945,3.944746494293213,-7.983615398406982
1788594193198643500,4.0306435546875,5.877690315246582,3.960383653640747,-8.690129280090332
1788594193208745500,4.040745361328125,5.55746603012085,3.716923236846924,-8.511087417602539
1788594193218821400,4.0508212890625,5.552901744842529,3.142913579940796,-7.710526466369629
1788594193228896300,4.060896240234375,5.723713397979736,2.329932451248169,-6.777012348175049
1788594193238973200,4.07097314453125,5.587767601013184,1.2550106048583984,-6.232630729675293
1788594193249048000,4.081048095703125,5.040767192840576,2.0797383785247803,-7.619546890258789
1788594193259124500,4.09112451171875,4.678868770599365,3.110666513442993,-9.019257545471191
1788594193269174300,4.10117431640625,4.3756279945373535,4.022857189178467,-10.28249740600586
1788594193279275800,4.11127587890625,4.013430118560791,4.5988874435424805,-10.820145606994629
1788594193289352000,4.12135205078125,3.4940381050109863,5.590012073516846,-10.89414119720459
1788594193299426800,4.1314267578125,2.9730746746063232,6.360795497894287,-10.852317810058594
1788594193309503500,4.14150341796875,2.6302549839019775,4.578835964202881,-8.641945838928223
1788594193319579100,4.1515791015625,3.422436475753784,3.253046751022339,-6.507814407348633
1788594193329660400,4.161660400390625,4.165611743927002,3.5154361724853516,-6.137984752655029
1788594193339730400,4.17173046875,5.332934856414795,4.46054744720459,-5.600337028503418
1788594193349784800,4.181784912109375,4.429647445678711,5.042113780975342,-5.281010627746582
1788594193359883000,4.191883056640625,2.09904146194458,7.472602844238281,-7.7451677322387695
1788594193369958000,4.2019580078125,1.8732383251190186,7.548020362854004,-8.158167839050293
1788594193380034000,4.212033935546875,1.7046716213226318,5.5353193283081055,-7.382371425628662
1788594193390109700,4.222109619140625,2.9246671199798584,4.004526615142822,-8.229619026184082
1788594193400184000,4.23218408203125,2.3931541442871094,4.253823280334473,-9.637784004211426
1788594193410261200,4.24226123046875,2.600177764892578,3.8657379150390625,-9.06871223449707
1788594193420337000,4.2523369140625,2.528052568435669,3.8863131999969482,-9.396642684936523
1788594193430411800,4.262411865234375,2.97434663772583,3.6910359859466553,-8.747514724731445
1788594193440488400,4.272488525390625,2.8632407188415527,4.434435844421387,-8.216675758361816
1788594193450563000,4.28256298828125,2.5948657989501953,5.223474502563477,-8.303465843200684
1788594193460640000,4.292639892578125,2.888753890991211,5.7328410148620605,-8.646958351135254
1788594193470715000,4.30271484375,2.31758713722229,5.481823921203613,-9.012598037719727
1788594193480791600,4.31279150390625,1.577479600906372,4.983006954193115,-8.75656795501709
1788594193490840800,4.3228408203125,1.3361890316009521,4.18072509765625,-8.318055152893066
1788594193500942000,4.332942138671875,1.527949571609497,3.5092263221740723,-8.61119556427002
1788594193511019000,4.34301904296875,1.9752912521362305,3.057245969772339,-8.893486976623535
1788594193521095000,4.353094970703125,3.159224033355713,2.9990367889404297,-9.269675254821777
1788594193531145200,4.363145263671875,3.1803977489471436,3.5983355045318604,-10.326790809631348
1788594193541246500,4.37324658203125,2.660407066345215,4.671236991882324,-10.955567359924316
1788594193551320800,4.38332080078125,2.5848400592803955,5.462820053100586,-10.942848205566406
1788594193561396700,4.393396728515625,2.1945102214813232,5.529932498931885,-10.291850090026855
1788594193571473400,4.403473388671875,2.0225019454956055,5.344606399536133,-9.243863105773926
1788594193581549600,4.413549560546875,2.2590789794921875,5.405359268188477,-8.366911888122559
1788594193591625200,4.423625244140625,2.488847494125366,5.336675643920898,-7.861959934234619
1788594193601699600,4.433699462890625,2.8178257942199707,4.6489410400390625,-7.692495346069336
1788594193611776500,4.443776611328125,2.1418378353118896,4.203021049499512,-6.955530166625977
1788594193621852700,4.453852783203125,1.108141303062439,3.8307974338531494,-5.941061973571777
1788594193631927300,4.46392724609375,2.437147617340088,4.381314277648926,-6.135516166687012
1788594193641977600,4.4739775390625,5.119775772094727,6.033912181854248,-5.554323673248291
1788594193652078600,4.48407861328125,5.093664169311523,6.946327209472656,-5.530381679534912
1788594193662155500,4.494155517578125,5.779303550720215,7.205125331878662,-1.7958009243011475
1788594193672230700,4.504230712890625,5.983109951019287,6.8547492027282715,2.0567688941955566
1788594193682307000,4.51430712890625,3.853692054748535,6.144793510437012,1.7949779033660889
1788594193692373500,4.52437353515625,1.4472200870513916,7.465868949890137,-3.9591116905212402
1788594193702457600,4.53445751953125,-1.8666542768478394,8.755146980285645,-12.239832878112793
1788594193712534300,4.5445341796875,-3.8902785778045654,7.275081157684326,-14.774469375610352
1788594193722609700,4.554609619140625,-1.7142484188079834,5.161674499511719,-9.970802307128906
1788594193732684800,4.564684814453125,3.4815433025360107,3.8391025066375732,-3.8215200901031494
1788594193742762000,4.574761962890625,3.674351453781128,4.4957122802734375,-3.841496706008911
1788594193752836600,4.584836669921875,5.297395706176758,5.748328685760498,-1.9523966312408447
1788594193762912000,4.594912109375,5.173870086669922,7.448136806488037,-2.2666356563568115
1788594193772988400,4.604988525390625,0.9614216089248657,8.925209999084473,-7.124695301055908
1788594193783064800,4.61506494140625,-2.7368717193603516,8.452130317687988,-11.28215217590332
1788594193793140700,4.625140625,-0.337133526802063,6.284480094909668,-9.009156227111816
1788594193803215000,4.635215087890625,3.418545961380005,5.098527431488037,-4.847435474395752
1788594193813292000,4.6452919921875,1.772233009338379,5.179107189178467,-4.962431907653809
1788594193823368200,4.6553681640625,1.2288988828659058,5.905074119567871,-5.95946741104126
1788594193833443600,4.665443603515625,1.5539865493774414,6.167912483215332,-5.293130874633789
1788594193843519700,4.675519775390625,1.7473183870315552,7.007604122161865,-4.682983875274658
1788594193853594400,4.685594482421875,0.3635445535182953,6.780529022216797,-6.08052396774292
1788594193863644700,4.695644775390625,0.04578910768032074,6.431125164031982,-7.0995564460754395
1788594193873747500,4.70574755859375,1.9119197130203247,7.084816932678223,-6.991143703460693
1788594193883822600,4.715822509765625,2.362628221511841,7.6168532371521,-6.79047966003418
1788594193893897200,4.725897216796875,1.7996166944503784,7.093720436096191,-6.523601055145264
1788594193903973000,4.73597314453125,1.6295535564422607,6.411672115325928,-5.496114253997803
1788594193914050000,4.746050048828125,0.829441249370575,6.018199920654297,-4.38116455078125
1788594193924126200,4.756126220703125,1.4318822622299194,6.1641716957092285,-4.912827014923096
1788594193934178800,4.7661787109375,0.5636100172996521,6.183250427246094,-5.059845924377441
1788594193944253000,4.7762529296875,0.6927472949028015,5.570858478546143,-4.5919294357299805
1788594193954351900,4.786351806640625,1.752031922340393,4.7998504638671875,-3.973177671432495
1788594193964403200,4.7964033203125,3.042581558227539,5.376404285430908,-5.297770023345947
1788594193974515000,4.806514892578125,1.9645920991897583,6.269067287445068,-5.660341739654541
1788594193984553700,4.8165537109375,2.710386037826538,7.962291717529297,-6.616675853729248
1788594193994630400,4.82663037109375,2.432508945465088,7.985785007476807,-10.142362594604492
1788594194004705800,4.836705810546875,0.38239890336990356,8.37177562713623,-12.965649604797363
1788594194014781700,4.84678173828125,-0.8441057205200195,7.952939510345459,-11.855113983154297
1788594194024865500,4.856865478515625,-1.5528643131256104,7.055038928985596,-9.241169929504395
1788594194034938400,4.8669384765625,-2.9293057918548584,6.387730121612549,-5.720870018005371
1788594194045009400,4.877009521484375,-7.530363082885742,6.373963356018066,-1.7548750638961792
1788594194055084800,4.887084716796875,-8.223933219909668,5.722665786743164,0.09142857789993286
1788594194065186000,4.89718603515625,-6.511031627655029,4.803516864776611,0.25430911779403687
1788594194075262500,4.907262451171875,-4.955922603607178,4.189254283905029,0.026635494083166122
1788594194085337600,4.917337646484375,-2.5054571628570557,4.011110782623291,-0.5161749124526978
1788594194095413800,4.927413818359375,7.108160495758057,5.157259941101074,-2.8300211429595947
1788594194105463800,4.9374638671875,9.14921760559082,6.174720764160156,-3.4116625785827637
1788594194115565300,4.9475654296875,3.6658220291137695,6.680121898651123,1.1812392473220825
1788594194125640700,4.957640625,6.099677562713623,9.587281227111816,5.885172367095947
1788594194135717000,4.967717041015625,6.029722213745117,14.790105819702148,11.8487548828125
1788594194145766700,4.9777666015625,0.6571335196495056,19.66926383972168,15.254581451416016
1788594194155868400,4.987868408203125,-0.7684639096260071,23.330448150634766,15.188366889953613
1788594194165943800,4.99794384765625,0.4672434329986572,25.792884826660156,9.809418678283691
1788594194176020000,5.00802001953125,1.27191960811615,23.46482276916504,-1.255609154701233
1788594194186095900,5.018095947265625,1.3186066150665283,17.32923126220703,-8.403573036193848
1788594194196145200,5.028145263671875,1.764526605606079,11.274894714355469,-9.368062019348145
1788594194206247200,5.0382470703125,1.4131776094436646,7.741052627563477,-7.459434509277344
1788594194216323000,5.048322998046875,0.7488613724708557,5.916820526123047,-4.020687580108643
1788594194226372600,5.05837255859375,0.7012017965316772,5.865270614624023,-0.38292261958122253
1788594194236474600,5.068474609375,1.5120131969451904,7.042020797729492,1.9769372940063477
1788594194246550300,5.07855029296875,1.8592472076416016,8.665214538574219,1.563787817955017
1788594194256626200,5.088626220703125,1.5765818357467651,9.804255485534668,-0.12337620556354523
1788594194266701300,5.098701416015625,1.0905588865280151,9.97835922241211,-0.8596680760383606
1788594194276789000,5.1087890625,0.5836614966392517,9.68117904663086,-0.5703437328338623
1788594194286852900,5.118852783203125,0.18966566026210785,9.496376991271973,-0.42669162154197693
1788594194296929500,5.128929443359375,-0.020799627527594566,9.384148597717285,-0.3643675744533539
1788594194307005400,5.13900537109375,-0.17919103801250458,8.665738105773926,0.31184476613998413
1788594194317080800,5.149080810546875,0.6973112225532532,8.048258781433105,0.9021651148796082
1788594194327155500,5.159155517578125,0.93388831615448,7.936105251312256,1.2624925374984741
1788594194337232400,5.169232421875,1.7080384492874146,7.694066524505615,1.941173791885376
1788594194347304700,5.1793046875,3.1133599281311035,8.797493934631348,0.9374048113822937
1788594194357357300,5.189357421875,2.030881643295288,10.298883438110352,-1.3811551332473755
1788594194367459600,5.19945947265625,0.6239888072013855,11.52037525177002,-3.439345598220825
1788594194377535000,5.209534912109375,1.069908857345581,12.106431007385254,-4.642656326293945
1788594194387611400,5.219611328125,0.6070049405097961,12.225467681884766,-5.11304235458374
1788594194397693400,5.229693359375,-0.13684359192848206,11.7116117477417,-4.671162128448486
1788594194407763000,5.239762939453125,-0.3413233757019043,10.382530212402344,-2.39928936958313
1788594194417838600,5.249838623046875,-0.15442600846290588,9.492560386657715,-0.6686556339263916
1788594194427913700,5.259913818359375,0.40873512625694275,9.190442085266113,-0.7439981698989868
1788594194437963500,5.269963623046875,1.0871920585632324,9.378686904907227,-1.3234697580337524
1788594194448065000,5.28006494140625,0.9900771975517273,9.523835182189941,-1.4612112045288086
1788594194458141700,5.2901416015625,0.6001216173171997,9.594015121459961,-1.456946611404419
1788594194468216600,5.300216552734375,0.5696703791618347,9.696741104125977,-1.6950948238372803
1788594194478269200,5.310269287109375,0.769661009311676,9.737442970275879,-1.8102409839630127
1788594194488368600,5.32036865234375,1.0736498832702637,9.689409255981445,-1.7723077535629272
1788594194498444000,5.330444091796875,1.3503297567367554,9.60067367553711,-1.740360140800476
1788594194508520400,5.3405205078125,1.4404115676879883,9.515081405639648,-1.7542765140533447
1788594194518596000,5.35059619140625,1.3757681846618652,9.491289138793945,-1.8293945789337158
1788594194528645400,5.360645263671875,1.221491813659668,9.513360023498535,-1.8475006818771362
1788594194538748200,5.370748046875,1.0883142948150635,9.585860252380371,-1.8692729473114014
1788594194548823300,5.3808232421875,1.00788414478302,9.6571626663208,-1.8555063009262085
1788594194558872800,5.390872802734375,0.9816974997520447,9.710283279418945,-1.7488895654678345
1788594194568975600,5.4009755859375,0.983418345451355,9.72517204284668,-1.6198270320892334
1788594194579050200,5.41105029296875,0.9990555047988892,9.76781940460205,-1.5432873964309692
1788594194589127200,5.421127197265625,0.9919477105140686,9.784278869628906,-1.4966005086898804
1788594194599202300,5.431202392578125,0.9704747200012207,9.796026229858398,-1.4737807512283325
1788594194609278700,5.44127880859375,0.984839916229248,9.75517463684082,-1.4617350101470947
1788594194619354000,5.45135400390625,0.992321789264679,9.713351249694824,-1.4607622623443604
1788594194629429000,5.461428955078125,1.0046669244766235,9.66075325012207,-1.4371943473815918
1788594194639505400,5.47150537109375,1.0048165321350098,9.640477180480957,-1.4432547092437744
1788594194649580800,5.481580810546875,1.0277858972549438,9.607033729553223,-1.4315829277038574
1788594194659657500,5.491657470703125,1.058835744857788,9.613094329833984,-1.4233529567718506
1788594194669732000,5.501732177734375,1.0851719379425049,9.62611198425293,-1.3887118101119995
1788594194679808300,5.511808349609375,1.1112089157104492,9.660902976989746,-1.3934253454208374
1788594194689884700,5.521884765625,1.1278185844421387,9.687164306640625,-1.381454348564148
1788594194699959800,5.531959716796875,1.1313351392745972,9.6896333694458,-1.3909564018249512
1788594194710036500,5.542036376953125,1.1362731456756592,9.687089920043945,-1.3599814176559448
1788594194720111900,5.55211181640625,1.1470470428466797,9.672874450683594,-1.3768155574798584
1788594194730161400,5.562161376953125,1.1650784015655518,9.645565032958984,-1.3913304805755615
1788594194740263200,5.57226318359375,1.1596914529800415,9.564311981201172,-1.3905823230743408
1788594194750339000,5.582339111328125,1.1324573755264282,9.502212524414062,-1.415871024131775
1788594194760414000,5.5924140625,1.1228805780410767,9.472583770751953,-1.4648773670196533
1788594194770491000,5.602490966796875,1.1409119367599487,9.46450424194336,-1.4996681213378906
1788594194780540700,5.612540771484375,1.12736976146698,9.492186546325684,-1.5520412921905518
1788594194790616600,5.622616455078125,1.1543045043945312,9.539097785949707,-1.5937153100967407
1788594194800692200,5.632692138671875,1.1789199113845825,9.581221580505371,-1.643694281578064
1788594194810769200,5.64276904296875,1.2409446239471436,9.60179615020752,-1.6414496898651123
1788594194820869600,5.65286962890625,1.2758102416992188,9.599252700805664,-1.595062017440796
1788594194830944500,5.662944580078125,1.311723232269287,9.619453430175781,-1.5497218370437622
1788594194841021200,5.673021240234375,1.329604983329773,9.640926361083984,-1.5293711423873901
1788594194851096600,5.6830966796875,1.372625708580017,9.655291557312012,-1.481935977935791
1788594194861169000,5.6931689453125,1.3526490926742554,9.648932456970215,-1.419836401939392
1788594194871248600,5.70324853515625,1.3314006328582764,9.639056205749512,-1.364844560623169
1788594194881323500,5.713323486328125,1.3244425058364868,9.641151428222656,-1.3135188817977905
1788594194891373800,5.723373779296875,1.290250301361084,9.619229316711426,-1.2585270404815674
1788594194901475300,5.733475341796875,1.2414684295654297,9.608156204223633,-1.2285995483398438
1788594194911525400,5.743525390625,1.2487257719039917,9.603292465209961,-1.2071266174316406
1788594194921627600,5.753627685546875,1.273864984512329,9.60448932647705,-1.1953052282333374
1788594194931702000,5.763701904296875,1.3022960424423218,9.585335731506348,-1.1846809387207031
1788594194941779200,5.773779296875,1.356390118598938,9.573365211486816,-1.1383681297302246
1788594194951854300,5.783854248046875,1.4508113861083984,9.56289005279541,-1.1328314542770386
1788594194961929500,5.793929443359375,1.5237597227096558,9.569025993347168,-1.1127800941467285
1788594194972006700,5.804006591796875,1.5848119258880615,9.57516098022461,-1.0902595520019531
1788594194982080800,5.814080810546875,1.6207249164581299,9.571569442749023,-1.072527527809143
1788594194992157200,5.8241572265625,1.6074072122573853,9.595511436462402,-1.0830769538879395
1788594195002232800,5.83423291015625,1.5129109621047974,9.596409797668457,-1.0982651710510254
1788594195012309500,5.8443095703125,1.4183400869369507,9.601346969604492,-1.12235689163208
1788594195022385400,5.854385498046875,1.3154641389846802,9.611746788024902,-1.1290156841278076
1788594195032460500,5.86446044921875,1.2472294569015503,9.63179874420166,-1.1275193691253662
1788594195042536400,5.874536376953125,1.1838579177856445,9.634042739868164,-1.1379940509796143
1788594195052612400,5.8846123046875,1.1240029335021973,9.64107608795166,-1.1532570123672485
1788594195062662700,5.89466259765625,1.1274445056915283,9.663745880126953,-1.1531074047088623
1788594195072764000,5.904763916015625,1.1536310911178589,9.65918254852295,-1.1723358631134033
1788594195082839300,5.91483935546875,1.1860276460647583,9.638980865478516,-1.1773487329483032
1788594195092915000,5.9249150390625,1.222614049911499,9.618406295776367,-1.1840075254440308
1788594195102992000,5.934991943359375,1.2402713298797607,9.597381591796875,-1.2678046226501465
1788594195113066800,5.945066650390625,1.2437130212783813,9.589301109313965,-1.3108254671096802
1788594195123142700,5.955142578125,1.213635802268982,9.579949378967285,-1.3680617809295654
1788594195133217800,5.9652177734375,1.18827223777771,9.594388961791992,-1.4144494533538818
1788594195143268600,5.9752685546875,1.1676222085952759,9.60411548614502,-1.4632313251495361
1788594195153370600,5.98537060546875,1.1411364078521729,9.619752883911133,-1.4929343461990356
1788594195163445200,5.9954453125,1.1192145347595215,9.653271675109863,-1.530867576599121
1788594195173522000,6.00552197265625,1.1153987646102905,9.66299819946289,-1.502660870552063
1788594195183597800,6.015597900390625,1.1238532066345215,9.659406661987305,-1.4943559169769287
1788594195193672400,6.02567236328125,1.1254243850708008,9.642422676086426,-1.4395885467529297
1788594195203749400,6.035749267578125,1.1231799125671387,9.648183822631836,-1.3953707218170166
1788594195213825000,6.045824951171875,1.1124807596206665,9.668235778808594,-1.3581857681274414
1788594195223876000,6.0558759765625,1.0729764699935913,9.6965913772583,-1.3292309045791626
1788594195233976800,6.065976806640625,1.0538976192474365,9.713126182556152,-1.30042564868927
1788594195244052200,6.07605224609375,1.028908133506775,9.718737602233887,-1.2609212398529053
1788594195254127400,6.08612744140625,0.9999533295631409,9.694197654724121,-1.2375030517578125
1788594195264178700,6.0961787109375,0.9666589498519897,9.689184188842773,-1.2218658924102783
1788594195274258400,6.106258544921875,0.9513959288597107,9.660379409790039,-1.1992706060409546
1788594195284354800,6.116354736328125,0.9969605803489685,9.650876998901367,-1.1791443824768066
1788594195294441500,6.12644140625,1.0316016674041748,9.643844604492188,-1.1805659532546997
1788594195304489200,6.1364892578125,1.064970850944519,9.654693603515625,-1.183034896850586
1788594195314556400,6.146556396484375,1.0947487354278564,9.668010711669922,-1.1854290962219238
1788594195324632300,6.15663232421875,1.1400889158248901,9.680131912231445,-1.18557870388031
1788594195334711000,6.1667109375,1.1585692167282104,9.70197868347168,-1.1931354999542236
1788594195344784100,6.1767841796875,1.1406874656677246,9.693598747253418,-1.1931354999542236
1788594195354860000,6.186860107421875,1.0893617868423462,9.688586235046387,-1.191788673400879
1788594195364936400,6.1969365234375,1.0464158058166504,9.683648109436035,-1.186850666999817
1788594195375012000,6.20701220703125,1.0106524229049683,9.666739463806152,-1.1843816041946411
1788594195385087000,6.2170869140625,0.9891793727874756,9.651251792907715,-1.2023382186889648
1788594195395167200,6.227167236328125,0.9899275898933411,9.676614761352539,-1.2594997882843018
1788594195405264400,6.237264404296875,0.9718214273452759,9.676764488220215,-1.2976573705673218
1788594195415340300,6.24734033203125,0.9525181651115417,9.678410530090332,-1.3279589414596558
1788594195425390000,6.25739013671875,0.9753379225730896,9.657012939453125,-1.3305776119232178
1788594195435492000,6.2674921875,0.9862614870071411,9.604639053344727,-1.3619266748428345
1788594195445567700,6.277567626953125,0.9947159886360168,9.58092212677002,-1.3823522329330444
1788594195455643600,6.2876435546875,1.0066121816635132,9.589301109313965,-1.3800327777862549
1788594195465719600,6.297719482421875,1.0122984647750854,9.615787506103516,-1.4121301174163818
1788594195475795200,6.307795166015625,0.9687538743019104,9.658883094787598,-1.4558991193771362
1788594195485870600,6.31787060546875,0.9496750831604004,9.654019355773926,-1.4535049200057983
1788594195495947000,6.327947021484375,0.9486275911331177,9.648782730102539,-1.4101848602294922
1788594195506022700,6.338022705078125,0.9619453549385071,9.642722129821777,-1.3875895738601685
1788594195516098600,6.3480986328125,0.949001669883728,9.63651180267334,-1.3493571281433105
1788594195526173700,6.358173583984375,0.969427227973938,9.622221946716309,-1.34591543674469
1788594195536249900,6.368249755859375,0.9932196140289307,9.62716007232666,-1.3591583967208862
1788594195546324500,6.378324462890625,0.9967361092567444,9.630825996398926,-1.3686603307724
1788594195556405800,6.38840576171875,1.0075099468231201,9.629703521728516,-1.3771148920059204
1788594195566476500,6.3984765625,1.0205284357070923,9.640552520751953,-1.3806313276290894
1788594195576553200,6.40855322265625,1.0377367734909058,9.643021583557129,-1.370081901550293
1788594195586628900,6.41862890625,1.0436475276947021,9.638307571411133,-1.3796586990356445
1788594195596703500,6.428703369140625,1.0473135709762573,9.631125450134277,-1.3833248615264893
1788594195606780400,6.438780517578125,1.0568156242370605,9.639505386352539,-1.3797335624694824
1788594195616856000,6.44885595703125,1.0640729665756226,9.640626907348633,-1.3606547117233276
1788594195626931000,6.458930908203125,1.0535235404968262,9.62020206451416,-1.3391817808151245
1788594195637008000,6.4690078125,1.0071358680725098,9.600823402404785,-1.3188310861587524
1788594195647084000,6.479083984375,1.0071358680725098,9.599700927734375,-1.329604983329773
1788594195657159200,6.4891591796875,1.0021229982376099,9.60291862487793,-1.3160626888275146
1788594195667234800,6.49923486328125,1.0173860788345337,9.623418807983398,-1.3434463739395142
1788594195677310700,6.509310791015625,1.0437222719192505,9.616311073303223,-1.3376106023788452
1788594195687385900,6.5193857421875,1.071405291557312,9.599626541137695,-1.3246668577194214
1788594195697461800,6.529461669921875,1.0762684345245361,9.582942008972168,-1.329530119895935
1788594195707538000,6.539537841796875,1.0951228141784668,9.599925994873047,-1.3569886684417725
1788594195717613800,6.54961376953125,1.0579378604888916,9.605911254882812,-1.385494589805603
1788594195727663900,6.559663818359375,1.0387094020843506,9.605911254882812,-1.400907278060913
1788594195737765600,6.569765625,1.0235211849212646,9.619976997375488,-1.4241758584976196
1788594195747840800,6.5798408203125,1.0018237829208374,9.637859344482422,-1.432405948638916
1788594195757916200,6.589916259765625,0.9730185270309448,9.661725997924805,-1.4368951320648193
1788594195767992600,6.59999267578125,0.9586533308029175,9.65686321258545,-1.4368951320648193
1788594195778042600,6.610042724609375,0.9683049321174622,9.653271675109863,-1.432181477546692
1788594195788144000,6.62014404296875,0.9574562311172485,9.645041465759277,-1.4620342254638672
1788594195798219300,6.63021923828125,0.9169044494628906,9.637709617614746,-1.4642788171768188
1788594195808295000,6.640294921875,0.8869020938873291,9.638906478881836,-1.4820857048034668
1788594195818371800,6.650371826171875,0.8952817916870117,9.653421401977539,-1.4752023220062256
1788594195828447000,6.660447021484375,0.9131634831428528,9.666589736938477,-1.4608371257781982
1788594195838523100,6.670523193359375,0.9322422742843628,9.680954933166504,-1.4489409923553467
1788594195848598300,6.680598388671875,0.949151337146759,9.686716079711914,-1.4095861911773682
1788594195858660400,6.690660400390625,0.9717466235160828,9.69045639038086,-1.4143747091293335
1788594195868750800,6.700750732421875,0.9900023937225342,9.67115306854248,-1.371578335762024
1788594195878826800,6.71082666015625,1.0045920610427856,9.670928955078125,-1.3203274011611938
1788594195888875500,6.72087548828125,1.015440821647644,9.687539100646973,-1.280897855758667
1788594195898977300,6.730977294921875,1.0158149003982544,9.698312759399414,-1.245358943939209
1788594195909054000,6.741053955078125,0.9983072876930237,9.666963577270508,-1.1976994276046753
1788594195919129600,6.751129638671875,0.9655366539955139,9.609053611755371,-1.1226561069488525
1788594195929204000,6.761203857421875,0.9683049321174622,9.58017349243164,-1.0822539329528809
1788594195939280400,6.7712802734375,0.9608978629112244,9.598204612731934,-1.1047744750976562
1788594195949356300,6.781356201171875,0.9270049929618835,9.646014213562012,-1.1354501247406006
1788594195959431400,6.791431396484375,0.9155576825141907,9.706093788146973,-1.2079495191574097
1788594195969508600,6.801508544921875,0.9545382857322693,9.730484962463379,-1.273640513420105
1788594195979584300,6.811584228515625,0.9903764724731445,9.72966194152832,-1.3108254671096802
1788594195989660200,6.82166015625,1.0514286756515503,9.685893058776855,-1.3542951345443726
1788594195999734800,6.83173486328125,1.0911574363708496,9.637110710144043,-1.3642460107803345
1788594196009811500,6.8418115234375,1.1108347177505493,9.55353832244873,-1.3539959192276
1788594196019886800,6.851886962890625,1.122057557106018,9.510367393493652,-1.319654107093811
1788594196029962500,6.86196240234375,1.0910825729370117,9.48762321472168,-1.3315502405166626
1788594196040038700,6.87203857421875,1.0512789487838745,9.517475128173828,-1.3623007535934448
1788594196050114000,6.882114013671875,0.9634417295455933,9.599700927734375,-1.3842226266860962
1788594196060163800,6.892163818359375,0.8933365345001221,9.709460258483887,-1.4321067333221436
1788594196070266000,6.90226611328125,0.882861852645874,9.825504302978516,-1.469665765762329
1788594196080341800,6.912341796875,0.8922890424728394,9.864784240722656,-1.4443769454956055
1788594196090392800,6.922392822265625,0.9261071681976318,9.846753120422363,-1.3908815383911133
1788594196100493000,6.9324931640625,0.9754875302314758,9.818022727966309,-1.3434463739395142
1788594196110569500,6.942569580078125,0.9699509739875793,9.756970405578613,-1.3306523561477661
1788594196120644900,6.952644775390625,0.9892542362213135,9.754501342773438,-1.292494773864746
1788594196130719700,6.9627197265625,0.9612720012664795,9.670629501342773,-1.2654104232788086
1788594196140788700,6.972788818359375,0.9364321231842041,9.601198196411133,-1.258452296257019
1788594196150872600,6.98287255859375,0.937629222869873,9.591695785522461,-1.281197190284729
1788594196160947200,6.992947265625,0.9255086183547974,9.594239234924316,-1.3073837757110596
1788594196171024100,7.003024169921875,0.9075520634651184,9.592967987060547,-1.3132944107055664
1788594196181098200,7.01309814453125,0.9145102500915527,9.61219596862793,-1.3334954977035522
1788594196191175400,7.023175537109375,0.9469067454338074,9.575460433959961,-1.3684358596801758
1788594196201250300,7.033250244140625,0.9793781042098999,9.513659477233887,-1.3999346494674683
1788594196211301000,7.043301025390625,1.0024223327636719,9.42567253112793,-1.458966612815857
1788594196221418500,7.05341845703125,1.0054899454116821,9.35429573059082,-1.5272762775421143
1788594196231477800,7.063477783203125,1.0122984647750854,9.366491317749023,-1.5833154916763306
1788594196241554400,7.073554443359375,1.0214263200759888,9.421707153320312,-1.6141408681869507
1788594196251630000,7.083630126953125,1.028010368347168,9.517176628112793,-1.602918028831482
1788594196261679600,7.0936796875,1.0625766515731812,9.564835548400879,-1.5478514432907104
1788594196271781600,7.10378173828125,1.0781389474868774,9.60867977142334,-1.4749031066894531
1788594196281856500,7.1138564453125,1.0724526643753052,9.645116806030273,-1.3684358596801758
1788594196291932200,7.12393212890625,1.0595839023590088,9.654244422912598,-1.2966846227645874
1788594196302009600,7.134009521484375,1.069983720779419,9.695918083190918,-1.2346599102020264
1788594196312085000,7.1440849609375,1.0710312128067017,9.741108894348145,-1.2009913921356201
1788594196322160600,7.15416064453125,1.046939492225647,9.794604301452637,-1.1635819673538208
1788594196332235300,7.1642353515625,1.015440821647644,9.85311222076416,-1.1786954402923584
1788594196342312200,7.174312255859375,0.9964368343353271,9.849371910095215,-1.163133144378662
1788594196352388000,7.18438818359375,0.9928455352783203,9.850568771362305,-1.1618611812591553
1788594196362462700,7.194462646484375,1.0072107315063477,9.833958625793457,-1.172784686088562
1788594196372539000,7.204538818359375,1.021575927734375,9.816226959228516,-1.2051812410354614
1788594196382614300,7.2146142578125,1.0264391899108887,9.815254211425781,-1.264662265777588
1788594196392690000,7.22468994140625,1.0380361080169678,9.808520317077637,-1.343521237373352
1788594196402767000,7.23476708984375,1.0352678298950195,9.811288833618164,-1.41991126537323
1788594196412842200,7.24484228515625,0.9957634210586548,9.768567085266113,-1.499967336654663
1788594196422892000,7.25489208984375,0.9540894031524658,9.713800430297852,-1.5550340414047241
1788594196432993300,7.2649931640625,0.9387515187263489,9.656563758850098,-1.583914041519165
1788594196443070200,7.2750703125,0.9545382857322693,9.60299301147461,-1.6117466688156128
1788594196453145300,7.285145263671875,0.9308955669403076,9.558775901794434,-1.6213983297348022
1788594196463220700,7.295220703125,0.9029881358146667,9.50849723815918,-1.61571204662323
1788594196473271600,7.305271484375,0.8901193141937256,9.454777717590332,-1.6231191158294678
1788594196483372000,7.3153720703125,0.8747066259384155,9.423727989196777,-1.6470611095428467
1788594196493448400,7.325448486328125,0.8363993763923645,9.407042503356934,-1.680430293083191
1788594196503524600,7.335524658203125,0.801608681678772,9.415422439575195,-1.7041479349136353
1788594196513600500,7.3456005859375,0.7892635464668274,9.456124305725098,-1.7337760925292969
1788594196523676400,7.355676513671875,0.7996633648872375,9.506327629089355,-1.7323545217514038
1788594196533750800,7.365750732421875,0.8328080773353577,9.582717895507812,-1.6891093254089355
1788594196543828000,7.375827880859375,0.8816647529602051,9.627833366394043,-1.6161609888076782
1788594196553913000,7.3859130859375,0.941444993019104,9.665916442871094,-1.545756459236145
1788594196563978800,7.395978759765625,0.9679308533668518,9.699060440063477,-1.4668974876403809
1788594196574055400,7.406055419921875,0.9645640254020691,9.705869674682617,-1.404723048210144
1788594196584130300,7.41613037109375,0.9804255962371826,9.69965934753418,-1.3415759801864624
1788594196594204400,7.426204345703125,0.9852887988090515,9.706692695617676,-1.3105261325836182
1788594196604259600,7.436259521484375,0.9650877118110657,9.699285507202148,-1.290175437927246
1788594196614358000,7.44635791015625,0.9510217905044556,9.68005657196045,-1.2722938060760498
1788594196624441000,7.456441162109375,0.9602245092391968,9.658509254455566,-1.273565649986267
1788594196634512400,7.466512451171875,0.977133572101593,9.640626907348633,-1.2641384601593018
1788594196644578000,7.476578125,0.9881319403648376,9.609577178955078,-1.2547861337661743
1788594196654635500,7.486635498046875,1.0086323022842407,9.590498924255371,-1.2454338073730469
1788594196664714000,7.4967138671875,1.023072361946106,9.579724311828613,-1.2312182188034058
1788594196674788400,7.506788330078125,1.0326491594314575,9.603442192077637,-1.1988965272903442
1788594196684862500,7.516862548828125,1.0254665613174438,9.617657661437988,-1.1736825704574585
1788594196694948900,7.526948974609375,1.0360907316207886,9.639205932617188,-1.1748048067092896
1788594196705015800,7.537015869140625,1.044545292854309,9.676690101623535,-1.1825112104415894
1788594196715090000,7.54708984375,1.0146178007125854,9.689708709716797,-1.1763759851455688
1788594196725166800,7.557166748046875,1.0072855949401855,9.717166900634766,-1.1738321781158447
1788594196735294000,7.5672939453125,1.0024971961975098,9.719486236572266,-1.166649580001831
1788594196745316900,7.57731689453125,0.9741408228874207,9.691728591918945,-1.1379940509796143
1788594196755436500,7.5874365234375,0.9564087390899658,9.654693603515625,-1.150039792060852
1788594196765494800,7.597494873046875,0.9253589510917664,9.641599655151367,-1.1739070415496826
1788594196775570700,7.60757080078125,0.893112063407898,9.621249198913574,-1.191788673400879
1788594196785646300,7.617646240234375,0.8972271084785461,9.620949745178223,-1.2173019647598267
1788594196795722500,7.627722412109375,0.8886977434158325,9.635390281677246,-1.2398972511291504
1788594196805771800,7.637771728515625,0.8813654780387878,9.62843132019043,-1.285237431526184
1788594196815873800,7.647873779296875,0.9072527885437012,9.666888236999512,-1.3114240169525146
1788594196825949400,7.657949462890625,0.8926631212234497,9.692028045654297,-1.3327473402023315
1788594196836025300,7.668025390625,0.8671499490737915,9.723227500915527,-1.3766659498214722
1788594196846100700,7.678100830078125,0.8692448735237122,9.757943153381348,-1.3932008743286133
1788594196856177200,7.68817724609375,0.8712649345397949,9.789216995239258,-1.433603048324585
1788594196866252800,7.698252685546875,0.8494926691055298,9.811064720153809,-1.475576400756836
1788594196876328400,7.708328369140625,0.8255506753921509,9.774253845214844,-1.531765341758728
1788594196886403600,7.718403564453125,0.809015691280365,9.725321769714355,-1.5558570623397827
1788594196896480300,7.728480224609375,0.8188169598579407,9.670629501342773,-1.5907974243164062
1788594196906556000,7.738555908203125,0.8346037268638611,9.600375175476074,-1.6294039487838745
1788594196916631800,7.7486318359375,0.8431330919265747,9.552865028381348,-1.6679356098175049
1788594196926681000,7.75868115234375,0.8384943008422852,9.515829086303711,-1.6823755502700806
1788594196936783000,7.768783203125,0.8384943008422852,9.502885818481445,-1.708711862564087
1788594196946858800,7.778858642578125,0.8507646322250366,9.500716209411621,-1.734000563621521
1788594196956934000,7.788933837890625,0.8675240278244019,9.504232406616211,-1.71013343334198
1788594196967010300,7.79901025390625,0.8916156888008118,9.510068893432617,-1.6683844327926636
1788594196977086500,7.80908642578125,0.9226654767990112,9.544559478759766,-1.6229695081710815
1788594196987161900,7.819161865234375,0.9358335733413696,9.572991371154785,-1.5667805671691895
1788594196997238000,7.829238037109375,0.9586533308029175,9.61331844329834,-1.4926351308822632
1788594197007313200,7.839313232421875,0.9778069257736206,9.65604019165039,-1.418489694595337
1788594197017389300,7.849389404296875,0.9945663213729858,9.686864852905273,-1.372999906539917
1788594197027465000,7.85946484375,1.02793550491333,9.736844062805176,-1.316736102104187
1788594197037540900,7.869540771484375,1.0567407608032227,9.75704574584961,-1.2630162239074707
1788594197047616300,7.8796162109375,1.090334415435791,9.766397476196289,-1.2117652893066406
1788594197057672000,7.889671875,1.118017315864563,9.750835418701172,-1.1880477666854858
1788594197067768600,7.8997685546875,1.1268459558486938,9.701754570007324,-1.1584943532943726
1788594197077817900,7.90981787109375,1.1237035989761353,9.638457298278809,-1.157671332359314
1788594197087935700,7.919935791015625,1.1009587049484253,9.60987663269043,-1.1994950771331787
1788594197097995000,7.9299951171875,1.0564415454864502,9.621996879577637,-1.2601730823516846
1788594197108044800,7.940044921875,1.0424504280090332,9.630900382995605,-1.3142670392990112
1788594197118147300,7.950147216796875,1.034145474433899,9.608305931091309,-1.3429975509643555
1788594197128222000,7.960221923828125,1.0426748991012573,9.565434455871582,-1.357587218284607
1788594197138299000,7.970298828125,1.0403554439544678,9.55585765838623,-1.3623756170272827
1788594197148374300,7.980374267578125,1.0295066833496094,9.559523582458496,-1.380257248878479
1788594197158449200,7.99044921875,1.028010368347168,9.58713150024414,-1.4051719903945923
1788594197168526600,8.000526611328125,0.9929203391075134,9.642048835754395,-1.4214824438095093
1788594197178602200,8.010602294921876,0.957905113697052,9.6849946975708,-1.442581295967102
1788594197188678000,8.020677978515625,0.9071779847145081,9.757793426513672,-1.4599393606185913
1788594197198753300,8.030753173828124,0.9172037243843079,9.855880737304688,-1.483357548713684
1788594197208828400,8.040828369140625,0.896852970123291,9.862988471984863,-1.4760253429412842
1788594197218905300,8.0509052734375,0.9199720025062561,9.85071849822998,-1.4033763408660889
1788594197228981000,8.06098095703125,0.974664568901062,9.779939651489258,-1.3084312677383423
1788594197239057000,8.071056884765625,0.9649381041526794,9.680281639099121,-1.2229881286621094
1788594197249131500,8.081131591796876,0.952817440032959,9.569998741149902,-1.1506383419036865
1788594197259181600,8.091181640625,0.9562591314315796,9.455001831054688,-1.0844237804412842
1788594197269283800,8.101283935546874,1.022698163986206,9.547926902770996,-1.1012579202651978
1788594197279341600,8.111341552734375,0.9762357473373413,9.636736869812012,-1.2104185819625854
1788594197289434600,8.1214345703125,0.8681225776672363,9.668983459472656,-1.2826935052871704
1788594197299510800,8.1315107421875,0.8478466868400574,9.635688781738281,-1.326911449432373
1788594197309586200,8.141586181640625,0.8889222145080566,9.561842918395996,-1.3334954977035522
1788594197319662600,8.15166259765625,0.9331400990486145,9.521665573120117,-1.3911808729171753
1788594197329738000,8.161738037109375,0.9670330286026001,9.565359115600586,-1.4937573671340942
1788594197339814400,8.171814453125,0.9709984064102173,9.652897834777832,-1.5530139207839966
1788594197349889500,8.1818896484375,0.9559598565101624,9.725621223449707,-1.5832407474517822
1788594197359964700,8.191964599609374,0.9366565942764282,9.762581825256348,-1.5794249773025513
1788594197370041900,8.202041748046875,0.9178770780563354,9.739612579345703,-1.5340847969055176
1788594197380117500,8.212117431640625,0.8572738170623779,9.699809074401855,-1.5066262483596802
1788594197390166500,8.22216650390625,0.8060978055000305,9.684021949768066,-1.488594889640808
1788594197400268500,8.2322685546875,0.736591100692749,9.691055297851562,-1.5217396020889282
1788594197410344000,8.242343994140626,0.6646154522895813,9.693598747253418,-1.5942391157150269
1788594197420419600,8.252419677734375,0.6466588973999023,9.657910346984863,-1.6433202028274536
1788594197430496800,8.262496826171875,0.6374561786651611,9.583391189575195,-1.642497181892395
1788594197440571100,8.272571044921875,0.6735188364982605,9.534608840942383,-1.663147211074829
1788594197450647800,8.282647705078125,0.7429507374763489,9.507450103759766,-1.6671125888824463
1788594197460722700,8.29272265625,0.7858967185020447,9.530269622802734,-1.658807635307312
1788594197470799600,8.302799560546875,0.8476222157478333,9.587804794311523,-1.6540192365646362
1788594197480875000,8.312875,0.8810662031173706,9.616386413574219,-1.6229695081710815
1788594197490950100,8.3229501953125,0.9264812469482422,9.648633003234863,-1.5811457633972168
1788594197501026800,8.33302685546875,0.9350854158401489,9.63531494140625,-1.5478514432907104
1788594197511076000,8.343076171875,0.9202712774276733,9.629703521728516,-1.4873230457305908
1788594197521178600,8.3531787109375,0.9024643898010254,9.637709617614746,-1.4418331384658813
1788594197531253000,8.3632529296875,0.889296293258667,9.669732093811035,-1.4069676399230957
1788594197541330400,8.373330322265625,0.8500164151191711,9.67422103881836,-1.3685855865478516
1788594197551405600,8.383405517578124,0.8229320049285889,9.641674995422363,-1.3304280042648315
1788594197561480700,8.393480712890625,0.8436568379402161,9.608006477355957,-1.2770073413848877
1788594197571557600,8.4035576171875,0.848669707775116,9.584064483642578,-1.2663830518722534
1788594197581633500,8.413633544921876,0.8795698285102844,9.605687141418457,-1.2687772512435913
1788594197591682600,8.4236826171875,0.8809913992881775,9.659930229187012,-1.2988544702529907
1788594197601784800,8.433784912109376,0.885480523109436,9.6803560256958,-1.3309516906738281
1788594197611860000,8.44385986328125,0.8854057192802429,9.67691421508789,-1.3489081859588623
1788594197621935400,8.453935302734376,0.8877999186515808,9.671003341674805,-1.3608791828155518
1788594197632012500,8.464012451171875,0.9033622145652771,9.647360801696777,-1.395669937133789
1788594197642062000,8.47406201171875,0.903137743473053,9.647584915161133,-1.4410849809646606
1788594197652164600,8.48416455078125,0.8949825167655945,9.604564666748047,-1.4460229873657227
1788594197662238500,8.494238525390625,0.8818892240524292,9.570073127746582,-1.484330177307129
1788594197672315100,8.504315185546876,0.8829367160797119,9.542539596557617,-1.5080478191375732
1788594197682391300,8.514391357421875,0.8613888621330261,9.518747329711914,-1.5474772453308105
1788594197692466200,8.524466064453126,0.8347533941268921,9.539247512817383,-1.5949872732162476
1788594197702542600,8.53454248046875,0.8092401623725891,9.572766304016113,-1.6305261850357056
1788594197712617500,8.544617431640624,0.7861959934234619,9.606285095214844,-1.6577602624893188
1788594197722694400,8.5546943359375,0.7573907375335693,9.618256568908691,-1.6826748847961426
1788594197732769500,8.56476953125,0.7499836683273315,9.626710891723633,-1.715969204902649
1788594197742846000,8.574845947265626,0.7402572631835938,9.657760620117188,-1.7122282981872559
1788594197752943000,8.584943115234376,0.7268646955490112,9.657686233520508,-1.6801310777664185
1788594197762996500,8.59499658203125,0.7353940010070801,9.64332103729248,-1.6671125888824463
1788594197773073200,8.6050732421875,0.7226748466491699,9.611896514892578,-1.6158616542816162
1788594197783149000,8.615149169921875,0.7327753305435181,9.577031135559082,-1.5587749481201172
1788594197793224400,8.625224365234375,0.71998131275177,9.555258750915527,-1.5147066116333008
1788594197803300400,8.63530029296875,0.7234230041503906,9.593341827392578,-1.484629511833191
1788594197813375500,8.64537548828125,0.7433996200561523,9.66494369506836,-1.45806884765625
1788594197823451000,8.655450927734375,0.7814823985099792,9.711481094360352,-1.4317326545715332
1788594197833527600,8.665527587890624,0.8405144214630127,9.758167266845703,-1.416095495223999
1788594197843603500,8.675603515625,0.8827122449874878,9.736544609069824,-1.3661913871765137
1788594197853679600,8.6856796875,0.8867524266242981,9.687463760375977,-1.3414263725280762
1788594197863754200,8.695754150390625,0.9072527885437012,9.668310165405273,-1.3201029300689697
1788594197873830400,8.705830322265625,0.9155576825141907,9.681478500366211,-1.3189058303833008
1788594197883907000,8.715906982421876,0.8858546018600464,9.656264305114746,-1.316511631011963
1788594197893981700,8.725981689453125,0.8762778043746948,9.65267276763916,-1.3248165845870972
1788594197904058400,8.736058349609374,0.885630190372467,9.663671493530273,-1.3618518114089966
1788594197914134000,8.746134033203125,0.8776245713233948,9.667037963867188,-1.3887866735458374
1788594197924190000,8.75618994140625,0.8762030005455017,9.656563758850098,-1.4437036514282227
1788594197934261800,8.76626171875,0.8952817916870117,9.63299560546875,-1.4916625022888184
1788594197944361200,8.776361328125,0.9072527885437012,9.619976997375488,-1.5013889074325562
1788594197954457600,8.78645751953125,0.908524751663208,9.591471672058105,-1.5277999639511108
1788594197964513000,8.796512939453125,0.9348609447479248,9.577255249023438,-1.531540870666504
1788594197974589200,8.806589111328124,0.9431658387184143,9.582043647766113,-1.5363292694091797
1788594197984653300,8.8166533203125,0.9155576825141907,9.610625267028809,-1.5313163995742798
1788594197994718500,8.826718505859375,0.9000701904296875,9.62611198425293,-1.5040075778961182
1788594198004790800,8.836790771484376,0.8678233027458191,9.635540008544922,-1.4942811727523804
1788594198014873600,8.84687353515625,0.8547300100326538,9.63419246673584,-1.4775217771530151
1788594198024941600,8.856941650390626,0.8414870500564575,9.660379409790039,-1.4689923524856567
1788594198035017500,8.867017578125,0.8259247541427612,9.67691421508789,-1.4497638940811157
1788594198045094400,8.877094482421874,0.8281693458557129,9.70085620880127,-1.4555997848510742
1788594198055169000,8.8871689453125,0.8232312798500061,9.723601341247559,-1.4590414762496948
1788594198065244400,8.897244384765624,0.8363245725631714,9.711779594421387,-1.474678635597229
1788594198075346700,8.9073466796875,0.823006808757782,9.695993423461914,-1.488669753074646
1788594198085400300,8.917400390625,0.8505401611328125,9.681777954101562,-1.4852280616760254
1788594198095498500,8.92749853515625,0.8662521243095398,9.669806480407715,-1.4698153734207153
1788594198105568000,8.937568115234376,0.8926631212234497,9.653121948242188,-1.4640543460845947
1788594198115649800,8.94764990234375,0.8998457193374634,9.654318809509277,-1.45574951171875
1788594198125720300,8.95772021484375,0.9130886793136597,9.63763427734375,-1.4535049200057983
1788594198135800300,8.96780029296875,0.9179518818855286,9.626935005187988,-1.4559738636016846
1788594198145851100,8.97785107421875,0.926032304763794,9.662848472595215,-1.4689176082611084
1788594198155953000,8.987952880859375,0.9061305522918701,9.670255661010742,-1.4835820198059082
1788594198166028300,8.9980283203125,0.8847323656082153,9.641599655151367,-1.4931588172912598
1788594198176104400,9.0081044921875,0.8715642094612122,9.633219718933105,-1.5051298141479492
1788594198186179300,9.018179443359376,0.8730605840682983,9.608080863952637,-1.4849287271499634
1788594198196256300,9.02825634765625,0.8542062640190125,9.579200744628906,-1.455150842666626
1788594198206332000,9.038331787109374,0.8602666258811951,9.579200744628906,-1.451634407043457
1788594198216407800,9.04840771484375,0.881739616394043,9.595810890197754,-1.426570177078247
1788594198226457300,9.058457275390625,0.8986486196517944,9.594538688659668,-1.3967922925949097
1788594198236558300,9.068558349609376,0.9150339365005493,9.630526542663574,-1.3753941059112549
1788594198246634800,9.078634765625,0.9280524253845215,9.668609619140625,-1.3477859497070312
1788594198256698400,9.088698486328125,0.9327660202980042,9.699584007263184,-1.3273603916168213
1788594198266786300,9.098786376953125,0.9279028177261353,9.725696563720703,-1.3033435344696045
1788594198276862500,9.108862548828125,0.9100211262702942,9.741034507751465,-1.2757353782653809
1788594198286943000,9.11894287109375,0.91346275806427,9.770886421203613,-1.268403172492981
1788594198297014000,9.129013916015625,0.9038859605789185,9.755399703979492,-1.287556767463684
1788594198307089400,9.13908935546875,0.8993220329284668,9.722029685974121,-1.294888973236084
1788594198317165600,9.14916552734375,0.8964788913726807,9.66299819946289,-1.3063362836837769
1788594198327240200,9.159240234375,0.8762778043746948,9.640328407287598,-1.3195043802261353
1788594198337316900,9.16931689453125,0.8797194957733154,9.632172584533691,-1.3541455268859863
1788594198347366400,9.179366455078124,0.8951321840286255,9.635913848876953,-1.3721020221710205
1788594198357469000,9.189468994140626,0.8961796164512634,9.64908218383789,-1.3851953744888306
1788594198367544000,9.1995439453125,0.8962544202804565,9.640702247619629,-1.3804817199707031
1788594198377620000,9.209619873046876,0.905756413936615,9.639654159545898,-1.3936498165130615
1788594198387695400,9.2196953125,0.9154080748558044,9.639579772949219,-1.380556583404541
1788594198397771500,9.229771484375,0.9094973802566528,9.662848472595215,-1.3753941059112549
1788594198407847400,9.239847412109375,0.9140613079071045,9.682076454162598,-1.3943980932235718
1788594198417898000,9.24989794921875,0.900818407535553,9.68806266784668,-1.4086884260177612
1788594198427999000,9.2599990234375,0.8937106132507324,9.679682731628418,-1.4098855257034302
1788594198438073900,9.270073974609375,0.9070283770561218,9.648707389831543,-1.4113070964813232
1788594198448150000,9.28014990234375,0.8915408849716187,9.643918991088867,-1.420809030532837
1788594198458225400,9.290225341796875,0.8758289217948914,9.657087326049805,-1.4397382736206055
1788594198468302600,9.300302490234374,0.8756044507026672,9.669133186340332,-1.4659996032714844
1788594198478378000,9.3103779296875,0.8679729104042053,9.688361167907715,-1.4896423816680908
1788594198488452900,9.320452880859374,0.8860790729522705,9.670479774475098,-1.486275553703308
1788594198498529300,9.330529296875,0.8860042691230774,9.672874450683594,-1.4850035905838013
1788594198508605200,9.340605224609375,0.8647557497024536,9.641749382019043,-1.486275553703308
1788594198518681600,9.350681640625,0.8623615503311157,9.638083457946777,-1.4827589988708496
1788594198528756500,9.360756591796875,0.8561515808105469,9.65491771697998,-1.5100679397583008
1788594198538831600,9.37083154296875,0.8668506741523743,9.65267276763916,-1.5244331359863281
1788594198548908000,9.380907958984375,0.8632593750953674,9.641974449157715,-1.5388731956481934
1788594198558984200,9.390984130859374,0.8456020951271057,9.607033729553223,-1.5610195398330688
1788594198569060000,9.40106005859375,0.8565256595611572,9.578377723693848,-1.5528643131256104
1788594198579136000,9.411135986328125,0.8601169586181641,9.570073127746582,-1.5684266090393066
1788594198589219600,9.421219482421876,0.8693944811820984,9.596484184265137,-1.5874305963516235
1788594198599286800,9.431286865234375,0.8584709763526917,9.61803150177002,-1.5980547666549683
1788594198609363500,9.441363525390624,0.8512135148048401,9.626411437988281,-1.6110732555389404
1788594198619413000,9.4514130859375,0.847472608089447,9.640776634216309,-1.6217724084854126
1788594198629514800,9.4615146484375,0.7995137572288513,9.646687507629395,-1.6430208683013916
1788594198639590700,9.471590576171875,0.7655459642410278,9.643095970153809,-1.6430957317352295
1788594198649665800,9.481665771484375,0.7548469305038452,9.633519172668457,-1.6383073329925537
1788594198659741200,9.4917412109375,0.7537994384765625,9.626187324523926,-1.613317847251892
1788594198669818000,9.501818115234375,0.7778910994529724,9.600000381469727,-1.6123452186584473
1788594198679893800,9.511893798828124,0.8150760531425476,9.602319717407227,-1.5766565799713135
1788594198689968400,9.521968505859375,0.8402899503707886,9.597606658935547,-1.5660324096679688
1788594198700037400,9.532037353515625,0.8642320036888123,9.611822128295898,-1.5349825620651245
1788594198710121200,9.542121337890626,0.8652794361114502,9.640477180480957,-1.5264532566070557
1788594198720196900,9.55219677734375,0.8453028202056885,9.666589736938477,-1.4989198446273804
1788594198730271700,9.562271728515626,0.8130559325218201,9.678336143493652,-1.478419542312622
1788594198740348400,9.572348388671875,0.798840343952179,9.684097290039062,-1.455674648284912
1788594198750436600,9.5824365234375,0.7570914626121521,9.671976089477539,-1.4484171867370605
1788594198760498700,9.592498779296875,0.7356932759284973,9.661128044128418,-1.4424316883087158
1788594198770576100,9.602576171875,0.7082347869873047,9.644368171691895,-1.4627076387405396
1788594198780651500,9.612651611328126,0.6986579895019531,9.632546424865723,-1.4805892705917358
1788594198790727200,9.62272705078125,0.6973112225532532,9.627983093261719,-1.5260043144226074
1788594198800802300,9.63280224609375,0.6955904364585876,9.629703521728516,-1.5718681812286377
1788594198810879000,9.64287890625,0.7264905571937561,9.644218444824219,-1.5803227424621582
1788594198820954400,9.652954345703124,0.7493851184844971,9.622819900512695,-1.5828665494918823
1788594198831030800,9.66303076171875,0.767192006111145,9.633668899536133,-1.5828665494918823
1788594198841105700,9.673105712890624,0.7552210092544556,9.627758026123047,-1.603217363357544
1788594198851181600,9.683181640625,0.750582218170166,9.620351791381836,-1.5709704160690308
1788594198861257500,9.693257568359375,0.7553706169128418,9.621623039245605,-1.5721675157546997
1788594198871333600,9.703333740234376,0.7852233648300171,9.639505386352539,-1.5459060668945312
1788594198881409800,9.713409912109375,0.772429347038269,9.645864486694336,-1.5399205684661865
1788594198891484200,9.723484130859376,0.7353940010070801,9.651700019836426,-1.5313912630081177
1788594198901561300,9.733561279296875,0.6899042129516602,9.671826362609863,-1.5322890281677246
1788594198911637000,9.743636962890625,0.6682067513465881,9.674295425415039,-1.5596727132797241
1788594198921730800,9.753730712890626,0.6277297735214233,9.675193786621094,-1.5380501747131348
1788594198931788500,9.76378857421875,0.599223792552948,9.657087326049805,-1.5212907791137695
1788594198941864400,9.773864501953126,0.5883750915527344,9.680805206298828,-1.4996681213378906
1788594198951931000,9.783930908203125,0.5963058471679688,9.752555847167969,-1.5004911422729492
1788594198962016000,9.79401611328125,0.6574327945709229,9.799542427062988,-1.4949544668197632
1788594198972091400,9.80409130859375,0.7196072340011597,9.80567741394043,-1.48081374168396
1788594198982167600,9.81416748046875,0.7630769610404968,9.763854026794434,-1.447818636894226
1788594198992242200,9.8242421875,0.786270797252655,9.689858436584473,-1.4422820806503296
1788594199002318800,9.83431884765625,0.7996633648872375,9.631499290466309,-1.4641292095184326
1788594199012394800,9.844394775390626,0.7960720658302307,9.611372947692871,-1.5036334991455078
1788594199022469600,9.8544697265625,0.7515549063682556,9.63524055480957,-1.5307927131652832
1788594199032546300,9.86454638671875,0.7109282612800598,9.617358207702637,-1.5617676973342896
1788594199042622200,9.874622314453125,0.6693289875984192,9.608006477355957,-1.6190788745880127
1788594199052697600,9.884697509765624,0.6503250598907471,9.580547332763672,-1.6287305355072021
1788594199062772700,9.894772705078125,0.6419453024864197,9.579350471496582,-1.6394295692443848
1788594199072849700,9.904849609375,0.6250362992286682,9.598429679870605,-1.6428712606430054
1788594199082925600,9.914925537109376,0.5996727347373962,9.637784004211426,-1.6496797800064087
1788594199093000200,9.925000244140625,0.5936123728752136,9.648557662963867,-1.6531962156295776
1788594199103077400,9.935077392578124,0.607977569103241,9.653346061706543,-1.6472855806350708
1788594199113152000,9.945152099609375,0.648753821849823,9.648483276367188,-1.6068834066390991
1788594199123227400,9.955227294921874,0.6562356948852539,9.624765396118164,-1.558625340461731
1788594199133304000,9.965303955078125,0.6227917075157166,9.619902610778809,-1.5633388757705688
1788594199143358200,9.975358154296876,0.5438578724861145,9.614964485168457,-1.597680687904358
1788594199153454800,9.985454833984376,0.46574705839157104,9.638906478881836,-1.6533459424972534
1788594199163530800,9.99553076171875,0.3903296887874603,9.647061347961426,-1.678110957145691
1788594199173581600,10.00558154296875,0.34596213698387146,9.645864486694336,-1.708936333656311
1788594199183683300,10.015683349609375,0.32433950901031494,9.63531494140625,-1.7530794143676758
1788594199193758000,10.025758056640624,0.2825906276702881,9.59827995300293,-1.7877953052520752
1788594199203835000,10.0358349609375,0.25086745619773865,9.571495056152344,-1.8084453344345093
1788594199213910300,10.04591015625,0.21854571998119354,9.571419715881348,-1.8083704710006714
1788594199223986000,10.05598583984375,0.20866964757442474,9.600225448608398,-1.8439842462539673
1788594199234062300,10.066062255859375,0.23418284952640533,9.682974815368652,-1.8950105905532837
1788594199244138000,10.076137939453124,0.247126504778862,9.718887329101562,-1.8888754844665527
1788594199254186800,10.086186767578125,0.2602946162223816,9.718887329101562,-1.8889503479003906
1788594199264264700,10.0962646484375,0.25573065876960754,9.674744606018066,-1.8938883543014526
1788594199274364700,10.10636474609375,0.2537853717803955,9.593565940856934,-1.9110218286514282
1788594199284414200,10.116414306640625,0.24570494890213013,9.53281307220459,-1.9152116775512695
1788594199294514000,10.126513916015625,0.2265513390302658,9.506701469421387,-1.9594296216964722
1788594199304566300,10.136566162109375,0.24779987335205078,9.5177001953125,-1.99766206741333
1788594199314643200,10.146643310546875,0.2572270333766937,9.526228904724121,-2.020332098007202
1788594199324718300,10.15671826171875,0.22363340854644775,9.539247512817383,-2.0236990451812744
1788594199334794200,10.166794189453125,0.18659809231758118,9.526079177856445,-2.036792278289795
1788594199344869600,10.17686962890625,0.181959331035614,9.514034271240234,-2.0236990451812744
1788594199354945800,10.18694580078125,0.19984102249145508,9.526004791259766,-2.0189106464385986
1788594199365021200,10.197021240234376,0.17978958785533905,9.545233726501465,-2.002375602722168
1788594199375097000,10.20709716796875,0.15816694498062134,9.559449195861816,-1.997437596321106
1788594199385193700,10.21719384765625,0.17238251864910126,9.577404975891113,-1.9998317956924438
1788594199395278300,10.2272783203125,0.19527707993984222,9.579649925231934,-1.9604771137237549
1788594199405350000,10.237349853515624,0.22909517586231232,9.554511070251465,-1.922544002532959
1788594199415426000,10.247426025390626,0.2828899025917053,9.55585765838623,-1.910797357559204
1788594199425475600,10.2574755859375,0.3405003845691681,9.524957656860352,-1.898078203201294
1788594199435578000,10.267578125,0.39811083674430847,9.511789321899414,-1.8529624938964844
1788594199445653000,10.277653076171875,0.4214543104171753,9.493608474731445,-1.8159271478652954
1788594199455728400,10.287728271484376,0.4512321949005127,9.535357475280762,-1.781211256980896
1788594199465805300,10.297805419921875,0.449810653924942,9.578303337097168,-1.7750012874603271
1788594199475881000,10.307880859375,0.47809216380119324,9.633369445800781,-1.7819594144821167
1788594199485955800,10.317955810546875,0.4803367257118225,9.65372085571289,-1.7830817699432373
1788594199496032800,10.32803271484375,0.4778676927089691,9.659780502319336,-1.7961750030517578
1788594199506108700,10.338108642578124,0.44921210408210754,9.646537780761719,-1.7996914386749268
1788594199516184000,10.34818408203125,0.4589385390281677,9.624990463256836,-1.7891420125961304
1788594199526259500,10.358259521484374,0.46911388635635376,9.627084732055664,-1.7743278741836548
1788594199536335600,10.368335693359375,0.47487494349479675,9.649829864501953,-1.786149263381958
1788594199546411300,10.378411376953125,0.46986207365989685,9.665467262268066,-1.8075474500656128
1788594199556487200,10.388487060546876,0.4711340069770813,9.653571128845215,-1.8124107122421265
1788594199566562800,10.398562744140625,0.48557403683662415,9.636811256408691,-1.805377721786499
1788594199576638700,10.408638671875,0.4868459403514862,9.661651611328125,-1.7562966346740723
1788594199586688000,10.41868798828125,0.5121347308158875,9.662773132324219,-1.7194108963012695
1788594199596790300,10.428790283203124,0.5112369060516357,9.625663757324219,-1.7088614702224731
1788594199606866200,10.4388662109375,0.4927566349506378,9.605836868286133,-1.7179893255233765
1788594199616915500,10.44891552734375,0.4340986907482147,9.593791007995605,-1.7476924657821655
1788594199627017500,10.459017578125,0.3728969097137451,9.610475540161133,-1.7867478132247925
1788594199637093600,10.46909375,0.3892074227333069,9.627608299255371,-1.8488473892211914
1788594199647184100,10.47918408203125,0.42122986912727356,9.632845878601074,-1.9074305295944214
1788594199657244200,10.489244140625,0.4355950653553009,9.616161346435547,-1.914687991142273
1788594199667320600,10.499320556640624,0.43439796566963196,9.599626541137695,-1.9410990476608276
1788594199677396700,10.509396728515625,0.4082113802433014,9.593416213989258,-1.9242647886276245
1788594199687451600,10.51945166015625,0.398185670375824,9.586009979248047,-1.8978537321090698
1788594199697547800,10.5295478515625,0.4397849142551422,9.601871490478516,-1.9349639415740967
1788594199707624000,10.5396240234375,0.4721066355705261,9.604265213012695,-1.912368655204773
1788594199717700400,10.549700439453124,0.4630535840988159,9.579949378967285,-1.8360533714294434
1788594199727775200,10.559775146484375,0.4405331015586853,9.566631317138672,-1.8133833408355713
1788594199737851400,10.569851318359374,0.4331260621547699,9.586981773376465,-1.8323124647140503
1788594199747927000,10.579927001953125,0.42743980884552,9.568876266479492,-1.8085200786590576
1788594199758003200,10.590003173828125,0.4587140679359436,9.556904792785645,-1.7729063034057617
1788594199768078600,10.60007861328125,0.5027075409889221,9.549647331237793,-1.7443255186080933
1788594199778154800,10.61015478515625,0.5392939448356628,9.594164848327637,-1.7753005027770996
1788594199788204300,10.620204345703126,0.5741595029830933,9.594015121459961,-1.727640986442566
1788594199798306000,10.63030615234375,0.582614004611969,9.607033729553223,-1.6870143413543701
1788594199808381700,10.640381591796874,0.5719149112701416,9.609277725219727,-1.6774375438690186
1788594199818457000,10.65045703125,0.4977695047855377,9.599626541137695,-1.7058687210083008
1788594199828533200,10.660533203125,0.43701663613319397,9.557653427124023,-1.7129764556884766
1788594199838609400,10.670609375,0.4076876640319824,9.4822359085083,-1.7013047933578491
1788594199848684500,10.6806845703125,0.42025721073150635,9.41871452331543,-1.6635212898254395
1788594199858760000,10.690760009765626,0.37409400939941406,9.36117935180664,-1.6540940999984741
1788594199868836900,10.7008369140625,0.26979660987854004,9.373000144958496,-1.7061679363250732
1788594199878912800,10.710912841796874,0.10317512601613998,9.416918754577637,-1.770961046218872
1788594199888988200,10.72098828125,-0.05259761959314346,9.424026489257812,-1.8562544584274292
1788594199899063800,10.731063720703125,-0.11866261810064316,9.445499420166016,-1.8965070247650146
1788594199909140200,10.74114013671875,-0.19654899835586548,9.449016571044922,-1.9415479898452759
1788594199919215900,10.7512158203125,-0.28737902641296387,9.409586906433105,-1.9975124597549438
1788594199929291800,10.761291748046874,-0.3275567293167114,9.404125213623047,-2.101435661315918
1788594199939367700,10.77136767578125,-0.2994248569011688,9.397690773010254,-2.2221932411193848
1788594199949426400,10.781426513671875,-0.23036709427833557,9.39941120147705,-2.28212308883667
1788594199959519000,10.79151904296875,-0.2330605685710907,9.396194458007812,-2.351405382156372
1788594199969594000,10.801593994140624,-0.31109657883644104,9.40824031829834,-2.419116258621216
1788594199979670300,10.811670166015626,-0.4289361834526062,9.469067573547363,-2.4863784313201904
1788594199989745200,10.8217451171875,-0.5057750940322876,9.520243644714355,-2.5025393962860107
1788594199999821300,10.8318212890625,-0.4106804132461548,9.60531234741211,-2.4916906356811523
1788594200009898200,10.841898193359375,-0.30361470580101013,9.637185096740723,-2.423156499862671
1788594200019972600,10.85197265625,-0.2173486202955246,9.615861892700195,-2.399738311767578
1788594200030049500,10.862049560546875,-0.18472762405872345,9.583540916442871,-2.371381998062134
1788594200040124700,10.872124755859375,-0.2668786644935608,9.535507202148438,-2.3784148693084717
1788594200050200800,10.882200927734376,-0.3387047350406647,9.505728721618652,-2.443956136703491
1788594200060276000,10.89227587890625,-0.4412812888622284,9.456572532653809,-2.472537040710449
1788594200070352600,10.9023525390625,-0.5324854254722595,9.348609924316406,-2.4595932960510254
1788594200080428300,10.91242822265625,-0.4999392330646515,9.263016700744629,-2.5031378269195557
1788594200090503000,10.9225029296875,-0.43439796566963196,9.215506553649902,-2.461089611053467
1788594200100579600,10.93257958984375,-0.4424035847187042,9.213860511779785,-2.387019157409668
1788594200110655700,10.94265576171875,-0.650100588798523,9.221193313598633,-2.3324761390686035
1788594200120730600,10.952730712890625,-0.8785971999168396,9.225382804870605,-2.379312753677368
1788594200130807300,10.962807373046875,-0.9573814272880554,9.185953140258789,-2.434154987335205
1788594200140856600,10.972856689453126,-0.7966706156730652,9.187225341796875,-2.557755708694458
1788594200150957800,10.982957763671875,-0.5946598649024963,9.164106369018555,-2.572943925857544
1788594200161034500,10.993034423828124,-0.6072294116020203,9.112406730651855,-2.51106858253479
1788594200171110400,11.0031103515625,-0.7616553902626038,9.073426246643066,-2.5329906940460205
1788594200181186300,11.013186279296875,-1.0932523012161255,8.968379974365234,-2.5465328693389893
1788594200191259600,11.023259765625,-1.0954968929290771,8.89834976196289,-2.6292824745178223
1788594200201337300,11.03333740234375,-1.0143184661865234,8.834678649902344,-2.7361984252929688
1788594200211413800,11.043413818359374,-0.9455600380897522,8.752378463745117,-2.703502655029297
1788594200221488600,11.053488525390625,-0.8880243897438049,8.751181602478027,-2.665494680404663
1788594200231565000,11.06356494140625,-0.9182511568069458,8.834454536437988,-2.6291327476501465
1788594200241640200,11.07364013671875,-1.040804386138916,8.927229881286621,-2.6365396976470947
1788594200251716600,11.083716552734375,-1.198746919631958,9.036240577697754,-2.7385926246643066
1788594200261791700,11.093791748046876,-1.4333785772323608,9.034744262695312,-2.839149236679077
1788594200271868000,11.103867919921875,-1.4776713848114014,8.984766006469727,-2.9180080890655518
1788594200281935000,11.11393505859375,-1.3314753770828247,8.88293743133545,-2.9788358211517334
1788594200292019200,11.124019287109375,-1.3136684894561768,8.878373146057129,-3.013551712036133
1788594200302096100,11.13409619140625,-1.4496891498565674,8.954913139343262,-3.121290922164917
1788594200312171300,11.144171142578125,-1.7906384468078613,9.09183120727539,-3.274444818496704
1788594200322246400,11.154246337890624,-2.149095296859741,9.178471565246582,-3.4206409454345703
1788594200332323600,11.164323486328126,-2.012251615524292,9.136123657226562,-3.4322378635406494
1788594200342398000,11.17439794921875,-1.6397289037704468,9.067665100097656,-3.3265936374664307
1788594200352473600,11.1844736328125,-1.3253402709960938,8.978331565856934,-3.1587750911712646
1788594200362551000,11.194551025390625,-1.3125462532043457,8.94773006439209,-3.015721559524536
1788594200372626400,11.20462646484375,-1.6660650968551636,8.9249849319458,-3.0156466960906982
1788594200382702000,11.2147021484375,-2.18306303024292,8.946533203125,-3.160421133041382
1788594200392776700,11.224776611328124,-2.516380786895752,9.005939483642578,-3.3343000411987305
1788594200402854000,11.23485400390625,-2.502389669418335,8.944737434387207,-3.4934394359588623
1788594200412929500,11.244929443359375,-2.051830768585205,8.719383239746094,-3.519925355911255
1788594200423004700,11.255004638671876,-1.7220295667648315,8.50330638885498,-3.5557637214660645
1788594200433081000,11.2650810546875,-1.7931822538375854,8.377985000610352,-3.62302565574646
1788594200443156200,11.27515625,-2.433631181716919,8.391303062438965,-3.8652141094207764
1788594200453238000,11.285238037109375,-3.272125482559204,8.521113395690918,-4.151471138000488
1788594200463308000,11.29530810546875,-3.614795684814453,8.571915626525879,-4.2812066078186035
1788594200473384400,11.305384521484376,-3.2828993797302246,8.587627410888672,-4.319364547729492
1788594200483463200,11.315463134765626,-2.5923218727111816,8.483255386352539,-4.209156036376953
1788594200493535200,11.32553515625,-1.9690064191818237,8.311620712280273,-4.069244861602783
1788594200503611400,11.335611328125,-1.6610522270202637,8.213309288024902,-4.008866310119629
1788594200513687000,11.34568701171875,-1.7600375413894653,8.221090316772461,-3.9642741680145264
1788594200523762400,11.355762451171875,-2.5470564365386963,8.250943183898926,-3.8273558616638184
1788594200533838800,11.3658388671875,-3.581725835800171,8.247126579284668,-3.8174049854278564
1788594200543914200,11.375914306640626,-4.024578094482422,8.258275032043457,-3.9792380332946777
1788594200553964000,11.385964111328125,-3.892822265625,8.258574485778809,-4.163591384887695
1788594200564066600,11.396066650390624,-3.525761365890503,8.278775215148926,-4.342782497406006
1788594200574142500,11.406142578125,-3.0899417400360107,8.155997276306152,-4.322432041168213
1788594200584206300,11.416206298828126,-2.6727521419525146,7.885377883911133,-4.140397548675537
1788594200594267400,11.426267333984375,-2.517503023147583,7.838466644287109,-3.963301658630371
1788594200604369200,11.436369140625,-2.5497500896453857,7.922488212585449,-3.837381601333618
1788594200614426000,11.446426025390625,-2.988412618637085,8.015936851501465,-3.7445313930511475
1788594200624509000,11.456509033203124,-3.509974479675293,7.980173587799072,-3.659088373184204
1788594200634570800,11.46657080078125,-4.038045406341553,7.8763251304626465,-3.8116438388824463
1788594200644649000,11.47664892578125,-4.042609691619873,7.786093711853027,-4.146383285522461
1788594200654722600,11.48672265625,-3.690736770629883,7.753323078155518,-4.433687686920166
1788594200664798000,11.4967978515625,-3.2135424613952637,7.7416510581970215,-4.607491493225098
1788594200674874400,11.506874267578125,-3.124882221221924,7.690699577331543,-4.628440856933594
1788594200684951000,11.516950927734374,-3.1979801654815674,7.643040180206299,-4.480299472808838
1788594200695025700,11.527025634765625,-3.41024112701416,7.671471118927002,-4.351611137390137
1788594200705127400,11.53712744140625,-3.778125047683716,7.564330577850342,-4.219406604766846
1788594200715177700,11.547177734375,-3.8820483684539795,7.554454326629639,-4.231003284454346
1788594200725279000,11.557279052734375,-4.141445159912109,7.4182844161987305,-4.187757968902588
1788594200735355000,11.56735498046875,-4.141894340515137,7.292888164520264,-4.223970413208008
1788594200745404400,11.577404296875,-3.891700029373169,7.178265571594238,-4.293551921844482
1788594200755506700,11.587506591796876,-3.761066436767578,7.032369136810303,-4.401066303253174
1788594200765581800,11.597581787109375,-3.9624786376953125,6.9589715003967285,-4.653804302215576
1788594200775658000,11.607657958984374,-4.507458686828613,6.984559535980225,-4.909460067749023
1788594200785733600,11.617733642578125,-4.568061828613281,6.993687629699707,-5.089474201202393
1788594200795809800,11.627809814453125,-4.329165458679199,6.951938629150391,-5.172972202301025
1788594200805885700,11.6378857421875,-4.166733741760254,6.954931259155273,-5.175964832305908
1788594200815960000,11.6479599609375,-4.340986728668213,6.961216449737549,-5.1203742027282715
1788594200826036700,11.65803662109375,-4.26130485534668,6.911910533905029,-5.012261390686035
1788594200836112400,11.6681123046875,-4.078672409057617,6.821380138397217,-4.927491664886475
1788594200846188300,11.678188232421874,-3.732710123062134,6.813748359680176,-5.054234504699707
1788594200856264200,11.68826416015625,-3.8454620838165283,6.80319881439209,-5.163694381713867
1788594200866340400,11.69834033203125,-4.318615913391113,6.744466304779053,-5.238588333129883
1788594200876416000,11.708416015625,-4.797157287597656,6.661566734313965,-5.241954803466797
1788594200886491400,11.718491455078125,-5.203872203826904,6.5773210525512695,-5.188309669494629
1788594200896567600,11.728567626953126,-5.437381744384766,6.572457790374756,-5.18666410446167
1788594200906643000,11.738642822265625,-5.0429368019104,6.654533863067627,-5.2999396324157715
1788594200916718300,11.74871826171875,-4.546215057373047,6.656778335571289,-5.381865978240967
1788594200926794500,11.75879443359375,-4.317792892456055,6.375983715057373,-5.212252140045166
1788594200936870700,11.76887060546875,-4.219182014465332,6.137087345123291,-5.138705253601074
1788594200946946600,11.778946533203126,-4.703858375549316,5.897517204284668,-5.122544288635254
1788594200957022200,11.789022216796875,-5.155389785766602,5.677475452423096,-5.161375045776367
1788594200967097000,11.79909716796875,-5.401169300079346,5.46843147277832,-5.107729911804199
1788594200977174000,11.809174072265625,-5.337498664855957,5.481823921203613,-5.074884414672852
1788594200987223300,11.819223388671874,-5.280187606811523,5.585448265075684,-5.196315288543701
1788594200997299500,11.829299560546875,-5.262455463409424,5.631012916564941,-5.446883678436279
1788594201007401200,11.839401123046875,-5.11887788772583,5.613654613494873,-5.679195880889893
1788594201017476000,11.84947607421875,-4.868459701538086,5.693411827087402,-5.6869025230407715
1788594201027552800,11.859552734375,-5.169530391693115,5.616198539733887,-5.526116847991943
1788594201037628400,11.86962841796875,-5.883676052093506,5.47075080871582,-5.386878967285156
1788594201047703800,11.879703857421875,-6.0563578605651855,5.2724809646606445,-5.276147365570068
1788594201057780000,11.889780029296874,-5.916895389556885,5.100173473358154,-5.158008098602295
1788594201067856000,11.89985595703125,-5.869011402130127,5.107356071472168,-5.123517036437988
1788594201077931800,11.909931884765625,-6.057106018066406,5.129726886749268,-5.196689605712891
1788594201088007200,11.920007080078125,-6.025158405303955,5.2288618087768555,-5.395707607269287
1788594201098083300,11.930083251953125,-5.761047840118408,5.377152442932129,-5.6956562995910645
1788594201108158700,11.94015869140625,-5.496114253997803,5.501875400543213,-5.844021797180176
1788594201118238500,11.950238525390626,-5.800252914428711,5.534795761108398,-5.945401191711426
1788594201128310500,11.960310546875,-6.248716831207275,5.546617031097412,-6.010418891906738
1788594201138386700,11.97038671875,-6.591386795043945,5.490652561187744,-5.952883243560791
1788594201148436000,11.98043603515625,-6.944756031036377,5.408127307891846,-5.735908508300781
1788594201158538200,11.990538330078126,-7.092149257659912,5.360467910766602,-5.632883071899414
1788594201168612900,12.00061279296875,-7.01516056060791,5.261782169342041,-5.6635589599609375
1788594201178664400,12.01066455078125,-6.523601055145264,5.03986930847168,-5.604526996612549
1788594201188739300,12.0207392578125,-6.063614845275879,4.7533135414123535,-5.758204936981201
1788594201198815000,12.03081494140625,-5.900510311126709,4.415132522583008,-5.854945659637451
1788594201208891600,12.0408916015625,-6.049474239349365,4.161421775817871,-5.85808801651001
1788594201218992400,12.050992431640625,-6.845247268676758,3.911003351211548,-5.658620834350586
1788594201229067800,12.06106787109375,-6.987103462219238,3.7724387645721436,-5.528660774230957
1788594201239144700,12.071144775390625,-6.909965515136719,3.6401591300964355,-5.3063740730285645
1788594201249220000,12.08122021484375,-7.036708354949951,3.4747347831726074,-5.291260719299316
1788594201259295200,12.091295166015625,-7.041496753692627,3.385850191116333,-5.427804946899414
1788594201269371400,12.101371337890624,-7.102698802947998,3.3918356895446777,-5.47770881652832
1788594201279447800,12.11144775390625,-6.804396152496338,3.4727895259857178,-5.447407245635986
1788594201289523700,12.121523681640625,-6.689623832702637,3.5241153240203857,-5.361590385437012
1788594201299599000,12.13159912109375,-7.063194274902344,3.6715831756591797,-5.4385786056518555
1788594201309675500,12.141675537109375,-7.507842540740967,3.7021090984344482,-5.418826580047607
1788594201319725000,12.15172509765625,-7.495497226715088,3.7422869205474854,-5.549983978271484
1788594201329826800,12.161826904296875,-7.449483871459961,3.8582561016082764,-5.768080711364746
1788594201339902700,12.17190283203125,-7.619546890258789,3.932925224304199,-6.010568618774414
1788594201349977300,12.181977294921875,-7.583334445953369,3.9018006324768066,-5.972710132598877
1788594201360054000,12.192053955078125,-7.147664546966553,3.8563108444213867,-5.875520706176758
1788594201370129200,12.202129150390626,-7.570540428161621,3.746626377105713,-5.746682643890381
1788594201380206000,12.2122060546875,-7.913884162902832,3.601402997970581,-5.678822040557861
1788594201390280700,12.22228076171875,-7.840112686157227,3.452214479446411,-5.431545734405518
1788594201400356900,12.23235693359375,-7.8483428955078125,3.3203089237213135,-5.3307647705078125
1788594201410433000,12.24243310546875,-7.704017162322998,3.1750855445861816,-5.333233833312988
1788594201420508000,12.2525078125,-7.932738304138184,3.0359225273132324,-5.377227306365967
1788594201430584800,12.262584716796875,-8.078635215759277,2.9298295974731445,-5.292457580566406
1788594201440660700,12.27266064453125,-8.240991592407227,2.8494741916656494,-5.113191604614258
1788594201450724400,12.282724365234374,-8.03696060180664,2.750713348388672,-5.054758548736572
1788594201460812000,12.29281201171875,-7.8419084548950195,2.692953109741211,-4.971858978271484
1788594201470887000,12.302886962890625,-8.060454368591309,2.5306711196899414,-4.919336318969727
1788594201480946000,12.31294580078125,-8.272191047668457,2.4031050205230713,-4.890531063079834
1788594201491039200,12.323039306640625,-8.232836723327637,2.458096981048584,-5.099350452423096
1788594201501099500,12.333099609375,-8.1795654296875,2.481440305709839,-5.182997703552246
1788594201511191600,12.343191650390626,-8.217124938964844,2.3855974674224854,-5.164218425750732
1788594201521266000,12.353265869140625,-8.051850318908691,2.178274631500244,-5.366528511047363
1788594201531342800,12.3633427734375,-7.950844764709473,2.028562307357788,-5.44650936126709
1788594201541418200,12.373418212890625,-7.872958183288574,1.9302502870559692,-5.390694618225098
1788594201551493400,12.383493408203124,-7.826121807098389,1.840991497039795,-5.194370269775391
1788594201561570000,12.393570068359375,-7.923460960388184,1.753229022026062,-4.919859886169434
1788594201571645000,12.40364501953125,-7.894431114196777,1.7351229190826416,-4.871078014373779
1788594201581721600,12.4137216796875,-7.927949905395508,1.7268179655075073,-4.898461818695068
1788594201591796500,12.42379638671875,-7.9328131675720215,1.7114801406860352,-4.936769008636475
1788594201601873200,12.433873046875,-8.019453048706055,1.6701053380966187,-4.862623691558838
1788594201611949300,12.44394921875,-7.83345365524292,1.6189292669296265,-4.7597479820251465
1788594201622024400,12.4540244140625,-8.07698917388916,1.5756092071533203,-4.861800670623779
1788594201632100600,12.4641005859375,-8.2359037399292,1.5062521696090698,-4.960636138916016
1788594201642150700,12.474150634765625,-8.295459747314453,1.4964509010314941,-4.943727016448975
1788594201652226300,12.484226318359376,-8.387187957763672,1.470862865447998,-4.920832633972168
1788594201662327600,12.49432763671875,-8.445322036743164,1.4500632286071777,-4.8634467124938965
1788594201672403700,12.50440380859375,-8.531213760375977,1.4089876413345337,-4.613776206970215
1788594201682478300,12.514478271484375,-8.599747657775879,1.3794342279434204,-4.491896629333496
1788594201692555300,12.52455517578125,-8.637381553649902,1.267206072807312,-4.529305934906006
1788594201702630700,12.534630615234375,-8.638579368591309,1.1715128421783447,-4.488155364990234
1788594201712707300,12.544707275390625,-8.622941970825195,1.0361655950546265,-4.4041337966918945
1788594201722782000,12.554781982421876,-8.862811088562012,0.9080758094787598,-4.516137599945068
1788594201732858600,12.564858642578125,-9.131410598754883,0.7975684404373169,-4.3628339767456055
1788594201742934300,12.574934326171874,-9.346065521240234,0.7109282612800598,-4.388721466064453
1788594201753009200,12.585009033203125,-9.366565704345703,0.6624456644058228,-4.504690647125244
1788594201763086000,12.595086181640625,-9.39709186553955,0.7211784720420837,-4.554444789886475
1788594201773162000,12.605161865234376,-9.232565879821777,0.8229320049285889,-4.490025997161865
1788594201783211300,12.615211181640625,-9.226655006408691,0.8663269281387329,-4.546065330505371
1788594201793312300,12.625312255859376,-9.208024978637695,0.8157494068145752,-4.453289985656738
1788594201803389400,12.635389404296875,-8.898798942565918,0.6817489266395569,-4.43009614944458
1788594201813463000,12.645463134765626,-9.006762504577637,0.6569839119911194,-4.563498020172119
1788594201823540700,12.655540771484375,-9.055843353271484,0.7186346054077148,-4.5021467208862305
1788594201833616400,12.665616455078125,-9.16313362121582,0.7143699526786804,-4.449174880981445
1788594201843692500,12.675692626953126,-9.371953010559082,0.6492775678634644,-4.482170104980469
1788594201853767200,12.68576708984375,-9.304391860961914,0.5538836121559143,-4.475735664367676
1788594201863843000,12.695843017578126,-9.553688049316406,0.358830988407135,-4.384756088256836
1788594201873919700,12.705919677734375,-9.510442733764648,0.20552724599838257,-4.2806830406188965
1788594201883994600,12.71599462890625,-9.36581802368164,0.0528968945145607,-4.230703830718994
1788594201894070500,12.726070556640625,-9.413252830505371,-0.02588730677962303,-4.270283222198486
1788594201904147500,12.7361474609375,-9.368885040283203,-0.0627729743719101,-4.276642799377441
1788594201914204700,12.74620458984375,-9.264962196350098,-0.09786299616098404,-4.338143825531006
1788594201924272400,12.7562724609375,-9.331550598144531,-0.12577040493488312,-4.299761772155762
1788594201934372600,12.76637255859375,-9.31621265411377,-0.1255459487438202,-4.344054698944092
1788594201944441300,12.77644140625,-9.507674217224121,-0.09299977123737335,-4.508057117462158
1788594201954509600,12.786509521484374,-9.547178268432617,-0.14402619004249573,-4.5952959060668945
1788594201964575700,12.79657568359375,-9.463156700134277,-0.19871874153614044,-4.591106414794922
1788594201974651600,12.806651611328125,-9.378387451171875,-0.21966800093650818,-4.635773181915283
1788594201984727300,12.816727294921876,-9.452607154846191,-0.25423428416252136,-4.708497047424316
1788594201994803500,12.826803466796875,-9.657536506652832,-0.34094929695129395,-4.709320068359375
1788594202004892000,12.836891845703125,-9.480664253234863,-0.41524437069892883,-4.537311553955078
1788594202014955000,12.846955078125,-9.525481224060059,-0.34596213698387146,-4.5773396492004395
1788594202025031000,12.857031005859374,-9.547403335571289,-0.1405097097158432,-4.595221042633057
1788594202035108000,12.867108154296876,-9.550993919372559,-0.07646481692790985,-4.502969741821289
1788594202045208000,12.8772080078125,-9.50266170501709,-0.039953239262104034,-4.600832462310791
1788594202055284200,12.8872841796875,-9.677139282226562,0.07339724898338318,-4.696301460266113
1788594202065333500,12.89733349609375,-9.65267276763916,0.04563947021961212,-4.624924182891846
1788594202075435800,12.907435791015626,-9.738265991210938,0.10302548855543137,-4.705429553985596
1788594202085511000,12.917510986328125,-9.67885971069336,0.11312603205442429,-4.760571002960205
1788594202095587300,12.92758740234375,-9.605462074279785,0.06658873707056046,-4.724059104919434
1788594202105663200,12.937663330078125,-9.730559349060059,0.13108254969120026,-4.838831424713135
1788594202115738600,12.947738525390625,-9.869722366333008,0.2166004329919815,-4.838980674743652
1788594202125814300,12.957814208984376,-9.745747566223145,0.1661725640296936,-4.706027984619141
1788594202135890400,12.967890380859375,-9.828272819519043,0.14829087257385254,-4.7631144523620605
1788594202145942300,12.9779423828125,-9.985466957092285,0.1330278366804123,-4.924947738647461
1788594202156042000,12.9880419921875,-10.042478561401367,0.05529109388589859,-4.956222057342529
1788594202166117600,12.99811767578125,-9.950751304626465,0.06314706802368164,-5.012635231018066
1788594202176193800,13.00819384765625,-9.88161849975586,0.06471826136112213,-5.043909549713135
1788594202186268400,13.018268310546874,-9.910872459411621,0.08776245266199112,-5.101295471191406
1788594202196345300,13.028345458984376,-10.017863273620605,0.11305121332406998,-5.214122295379639
1788594202206420500,13.03842041015625,-10.097620010375977,0.06628946214914322,-5.2248215675354
1788594202216495900,13.048495849609376,-10.063353538513184,0.10474632680416107,-5.2486138343811035
