time,seconds_elapsed,z,y,x
1788681532362357800,0.135357666015625,8.637007713317871,4.314650535583496,-0.8951321840286255
1788681532372437800,0.145437744140625,8.866327285766602,4.259808540344238,-0.9918728470802307
1788681532382507500,0.155507568359375,9.072603225708008,4.19688606262207,-0.9201216697692871
1788681532392580000,0.165580078125,8.93733024597168,4.188356399536133,-0.978181004524231
1788681532402659600,0.17565966796875,8.842535018920898,4.154089450836182,-1.1236287355422974
1788681532412729000,0.18572900390625,8.494478225708008,4.124311923980713,-1.1581950187683105
1788681532422803200,0.19580322265625,8.177845001220703,4.136133193969727,-1.1293898820877075
1788681532432877600,0.205877685546875,7.918971538543701,4.267664432525635,-1.112181544303894
1788681532442988300,0.21598828125,7.631293296813965,4.199803829193115,-0.8965536952018738
1788681532453027000,0.226027099609375,7.715614318847656,4.1874589920043945,-0.7548469305038452
1788681532463100400,0.236100341796875,7.901613712310791,4.21581506729126,-0.8055740594863892
1788681532473175300,0.24617529296875,8.236502647399902,4.187009811401367,-0.7676409482955933
1788681532483271200,0.256271240234375,8.52717399597168,4.10478401184082,-0.8264485001564026
1788681532493349400,0.266349365234375,8.844704627990723,3.945345163345337,-0.9408464431762695
1788681532503423500,0.276423583984375,9.408763885498047,3.854814291000366,-1.0569652318954468
1788681532513498000,0.286498046875,9.636063575744629,3.800795316696167,-1.0712555646896362
1788681532523572200,0.296572265625,9.534534454345703,3.6815340518951416,-0.958054780960083
1788681532533646600,0.306646484375,9.293169021606445,3.6141223907470703,-0.7939023375511169
1788681532543721200,0.31672119140625,9.05591869354248,3.699415683746338,-0.8331073522567749
1788681532553794800,0.326794921875,8.764424324035645,3.823016405105591,-0.9041852355003357
1788681532563865900,0.336865966796875,8.337657928466797,3.9368906021118164,-1.057189702987671
1788681532573940200,0.346940185546875,7.929446220397949,3.9969701766967773,-1.4287399053573608
1788681532584015400,0.357015380859375,7.819612503051758,4.155511379241943,-1.4513351917266846
1788681532594091800,0.367091796875,8.002843856811523,4.194790840148926,-1.299004077911377
1788681532604151600,0.377151611328125,8.268600463867188,4.178630352020264,-1.2141594886779785
1788681532614237700,0.38723779296875,8.875604629516602,4.227112770080566,-1.3893852233886719
1788681532624295400,0.39729541015625,9.585411071777344,4.295123100280762,-1.5529390573501587
1788681532634390500,0.407390625,9.999308586120605,4.282927513122559,-1.451933741569519
1788681532644464400,0.41746435546875,9.869422912597656,4.251054763793945,-1.161412239074707
1788681532654538800,0.427538818359375,9.72270393371582,4.2858452796936035,-1.0260651111602783
1788681532664612900,0.43761279296875,9.713650703430176,4.364779472351074,-1.0590602159500122
1788681532674688000,0.44768798828125,9.661576271057129,4.461669921875,-1.3472621440887451
1788681532684762000,0.45776220703125,9.593940734863281,4.519354820251465,-1.6798317432403564
1788681532694835500,0.46783544921875,9.342998504638672,4.475735664367676,-1.7446997165679932
1788681532704906500,0.477906494140625,8.897302627563477,4.351910591125488,-1.6684592962265015
1788681532714981600,0.487981689453125,8.3329439163208,4.327818870544434,-1.7929577827453613
1788681532725056800,0.498056884765625,8.347683906555176,4.425981044769287,-1.830666422843933
1788681532735140600,0.508140625,8.486995697021484,4.6181159019470215,-1.9245641231536865
1788681532745211600,0.518211669921875,8.263437271118164,4.696899890899658,-1.843310832977295
1788681532755281000,0.528281005859375,8.1964750289917,4.697648048400879,-1.5780034065246582
1788681532765356500,0.5383564453125,8.471807479858398,4.71111536026001,-1.4476690292358398
1788681532775405600,0.548405517578125,9.099388122558594,4.795062065124512,-1.535581111907959
1788681532785505800,0.558505859375,9.384596824645996,4.805985927581787,-1.592742681503296
1788681532795554600,0.568554443359375,9.459041595458984,4.739397048950195,-1.599326729774475
1788681532805654500,0.578654541015625,9.386617660522461,4.648567199707031,-1.6365116834640503
1788681532815729400,0.5887294921875,9.197251319885254,4.622380256652832,-1.7628058195114136
1788681532825802800,0.598802734375,8.93733024597168,4.624625205993652,-1.9122189283370972
1788681532835874000,0.6088740234375,8.7268648147583,4.6466217041015625,-1.919625997543335
1788681532845947600,0.61894775390625,8.558897018432617,4.663156509399414,-1.7767969369888306
1788681532856023300,0.629023193359375,8.325387954711914,4.744783878326416,-1.783829927444458
1788681532866108000,0.63910791015625,8.049381256103516,4.767454147338867,-1.744475245475769
1788681532876152000,0.649152099609375,7.844676494598389,4.78354024887085,-1.535880446434021
1788681532886245000,0.6592451171875,7.687557220458984,4.808380126953125,-1.3810802698135376
1788681532896329200,0.6693291015625,7.735366344451904,4.855441093444824,-1.2445359230041504
1788681532906397000,0.67939697265625,7.942315101623535,4.911630153656006,-1.1125556230545044
1788681532916470000,0.689469970703125,8.038382530212402,4.91267728805542,-1.012597680091858
1788681532926560500,0.699560546875,8.163629531860352,4.900257587432861,-1.072826862335205
1788681532936617700,0.70961767578125,8.359430313110352,4.851325988769531,-1.1729344129562378
1788681532946692900,0.71969287109375,8.672322273254395,4.83247184753418,-1.2244096994400024
1788681532956745200,0.7297451171875,8.984914779663086,4.890979766845703,-1.2407950162887573
1788681532966842000,0.739842041015625,9.03279972076416,4.891129493713379,-1.227851390838623
1788681532976914400,0.74991455078125,8.785597801208496,4.820799827575684,-1.2152818441390991
1788681532986988800,0.75998876953125,8.540342330932617,4.85102653503418,-1.2332383394241333
1788681532997071000,0.770071044921875,8.309301376342773,4.900482177734375,-1.2571803331375122
1788681533007142100,0.78014208984375,7.965359210968018,4.73767614364624,-1.197026014328003
1788681533017210000,0.790210205078125,7.789984226226807,4.724658012390137,-0.8860042691230774
1788681533027288600,0.80028857421875,7.715015888214111,4.83209753036499,-0.9281272292137146
1788681533037361000,0.81036083984375,7.8558244705200195,4.862548828125,-0.9320926666259766
1788681533047434800,0.820434814453125,8.105644226074219,4.873996257781982,-0.8959551453590393
1788681533057509000,0.830509033203125,8.259995460510254,4.855291366577148,-0.8112602829933167
1788681533067584000,0.840583984375,8.436568260192871,4.791994571685791,-0.6845172047615051
1788681533077658000,0.850658203125,8.43394947052002,4.706776142120361,-0.6061071157455444
1788681533087732700,0.860732666015625,8.399907112121582,4.6443023681640625,-0.560916543006897
1788681533097808100,0.87080810546875,8.442403793334961,4.546364784240723,-0.5449053645133972
1788681533107881000,0.880880859375,9.014019966125488,4.486285209655762,-0.5259013772010803
1788681533117955800,0.890955810546875,9.261370658874512,4.538059711456299,-0.44180503487586975
1788681533128036400,0.901036376953125,8.975563049316406,4.572925090789795,-0.4429273009300232
1788681533138104800,0.911104736328125,8.573861122131348,4.568511009216309,-0.3944447338581085
1788681533148157400,0.921157470703125,8.135197639465332,4.505289077758789,-0.2593219578266144
1788681533158253000,0.931253173828125,7.8430304527282715,4.489352703094482,-0.15682020783424377
1788681533168328200,0.941328125,7.498564720153809,4.509852886199951,-0.2091185599565506
1788681533178402000,0.951402099609375,7.150507926940918,4.452167510986328,-0.3752163052558899
1788681533188476400,0.961476318359375,7.245602607727051,4.361562252044678,-0.34267011284828186
1788681533198550500,0.971550537109375,7.248894691467285,4.296469688415527,-0.23912090063095093
1788681533208624600,0.981624755859375,7.243956565856934,4.212298393249512,-0.1356464922428131
1788681533218699800,0.99169970703125,7.457788467407227,4.107776641845703,0.10669161379337311
1788681533228773600,1.001773681640625,7.784821510314941,4.030788421630859,0.44771572947502136
1788681533238848300,1.01184814453125,8.258125305175781,4.192396640777588,0.7033715844154358
1788681533248905000,1.021905029296875,8.75529670715332,4.328043460845947,0.9290250539779663
1788681533258996700,1.031996826171875,9.318607330322266,4.282029628753662,0.9791536927223206
1788681533269072100,1.042072021484375,9.938032150268555,4.122366428375244,0.8732850551605225
1788681533279149800,1.05214990234375,9.689708709716797,3.886537551879883,0.5769277811050415
1788681533289237800,1.06223779296875,8.789862632751465,3.5727474689483643,0.10594342648983002
1788681533299281400,1.072281494140625,7.537844657897949,3.252897024154663,-0.32942718267440796
1788681533309368800,1.082368896484375,6.192976951599121,3.188403367996216,-0.5752817988395691
1788681533319443200,1.092443115234375,6.222904205322266,3.318812370300293,-0.3776853084564209
1788681533329518300,1.102518310546875,7.138835906982422,3.4561798572540283,0.4934300184249878
1788681533339592000,1.112592041015625,8.387038230895996,3.752462148666382,1.3557915687561035
1788681533349666800,1.122666748046875,8.61695671081543,3.600355625152588,2.0406079292297363
1788681533359740400,1.132740478515625,8.656011581420898,3.6379146575927734,1.7445499897003174
1788681533369817900,1.14281787109375,8.562189102172852,3.7084689140319824,1.4384663105010986
1788681533379889700,1.1528896484375,8.0192289352417,3.894019365310669,0.7324760556221008
1788681533389963800,1.1629638671875,7.770755767822266,3.7829883098602295,0.3197755515575409
1788681533400040400,1.17304052734375,7.2486701011657715,3.4818427562713623,0.431255578994751
1788681533410112500,1.183112548828125,7.055861949920654,3.257012128829956,0.8033294677734375
1788681533420165600,1.19316552734375,7.71434211730957,3.2719759941101074,1.371578335762024
1788681533430261800,1.20326171875,7.9171013832092285,3.4734628200531006,1.5807716846466064
1788681533440336000,1.2133359375,8.16220760345459,3.5704281330108643,1.4931588172912598
1788681533450409700,1.22340966796875,8.063746452331543,3.5160348415374756,1.3165864944458008
1788681533460462800,1.233462890625,7.490933418273926,3.4013376235961914,1.1700164079666138
1788681533470559000,1.24355908203125,7.360748767852783,3.401038408279419,0.9078513383865356
1788681533480633000,1.253633056640625,8.075716972351074,3.3961002826690674,0.7486369609832764
1788681533490686000,1.26368603515625,9.129465103149414,3.357194423675537,0.9282768964767456
1788681533500781800,1.27378173828125,9.284415245056152,3.3961002826690674,0.9111433625221252
1788681533510856200,1.283856201171875,8.665813446044922,3.3865983486175537,0.6973860859870911
1788681533520930600,1.2939306640625,7.644087314605713,3.3877954483032227,0.6703016757965088
1788681533531005200,1.304005126953125,6.993089199066162,3.485957622528076,0.8547300100326538
1788681533541079300,1.314079345703125,6.925452709197998,3.524414539337158,1.2277017831802368
1788681533551149800,1.32414990234375,6.916998386383057,3.5609261989593506,1.775899052619934
1788681533561228000,1.33422802734375,7.7580366134643555,3.508777379989624,2.7287166118621826
1788681533571305200,1.34430517578125,8.248922348022461,3.4280478954315186,3.8905029296875
1788681533581376800,1.354376708984375,7.511283874511719,3.8115692138671875,3.811793565750122
1788681533591451400,1.364451416015625,6.927323341369629,4.128576278686523,3.5494039058685303
1788681533601525200,1.374525146484375,6.680346488952637,3.9978678226470947,3.7036802768707275
1788681533611600100,1.38460009765625,6.660519599914551,3.832219123840332,3.8414218425750732
1788681533621652500,1.394652587890625,7.111302852630615,3.6914100646972656,4.140921592712402
1788681533631748900,1.404748779296875,7.864279270172119,3.596315383911133,4.580482006072998
1788681533641826300,1.414826416015625,8.958728790283203,3.5149126052856445,4.458826541900635
1788681533651897000,1.42489697265625,10.635941505432129,3.303025722503662,4.340238571166992
1788681533661972200,1.43497216796875,11.43986988067627,3.0889689922332764,4.266766548156738
1788681533672047900,1.4450478515625,11.214515686035156,2.9858686923980713,3.9483377933502197
1788681533682100700,1.455100830078125,10.499920845031738,2.9716532230377197,3.6572928428649902
1788681533692176600,1.4651767578125,9.917157173156738,2.850820779800415,3.2971150875091553
1788681533702248700,1.475248779296875,9.593192100524902,2.762759208679199,3.1577274799346924
1788681533712335400,1.48533544921875,9.294815063476562,2.7613375186920166,3.224465847015381
1788681533722408400,1.495408447265625,9.549647331237793,2.671330451965332,3.7030069828033447
1788681533732471000,1.505470947265625,9.5670804977417,2.4958057403564453,4.392088413238525
1788681533742545700,1.515545654296875,9.289502143859863,2.598008155822754,4.9799394607543945
1788681533752636000,1.525635986328125,9.023820877075195,2.622399091720581,4.922553539276123
1788681533762706000,1.535705810546875,8.50749683380127,2.254140853881836,4.630161762237549
1788681533772769000,1.54576904296875,8.220940589904785,1.84735107421875,4.095431804656982
1788681533782843400,1.555843505859375,8.433799743652344,1.6109236478805542,3.445256233215332
1788681533792918000,1.56591796875,8.612841606140137,1.4282160997390747,2.8693759441375732
1788681533803015400,1.576015380859375,8.448240280151367,1.2436381578445435,2.4164977073669434
1788681533813066500,1.58606640625,8.368483543395996,1.0440216064453125,1.9322704076766968
1788681533823141000,1.59614111328125,8.544082641601562,0.8431330919265747,1.6380079984664917
1788681533833237200,1.6062373046875,8.577601432800293,0.6626701354980469,1.9139398336410522
1788681533843313400,1.6163134765625,7.969025611877441,0.646284818649292,2.330456018447876
1788681533853389800,1.626389892578125,7.069478988647461,0.6616227030754089,2.650381326675415
1788681533863464200,1.636464111328125,6.876147270202637,0.29695582389831543,3.4305918216705322
1788681533873539000,1.6465390625,7.936180114746094,-0.18308161199092865,4.363656997680664
1788681533883612700,1.65661279296875,8.682198524475098,-0.3009960353374481,4.818630218505859
1788681533893687800,1.666687744140625,8.273089408874512,-0.1695394068956375,5.437007427215576
1788681533903761400,1.676761474609375,6.784120082855225,0.00905307475477457,5.645378112792969
1788681533913834500,1.68683447265625,5.693710803985596,0.07234977930784225,5.572354793548584
1788681533923906000,1.696906005859375,5.494692802429199,-0.057984571903944016,5.234548091888428
1788681533933981400,1.7069814453125,6.094964027404785,-0.4572925269603729,5.029544353485107
1788681533944055800,1.717055908203125,6.679149150848389,-0.8859294652938843,4.905943870544434
1788681533954140000,1.727139892578125,6.645705223083496,-1.0697592496871948,4.643703937530518
1788681533964214000,1.737214111328125,6.31485652923584,-1.1981483697891235,4.742165565490723
1788681533974278400,1.7472783203125,5.8080339431762695,-1.4611364603042603,5.111695289611816
1788681533984355800,1.75735595703125,5.556493282318115,-1.8011878728866577,5.544297695159912
1788681533994404900,1.76740478515625,5.490952014923096,-2.2327427864074707,6.016254901885986
1788681534004505000,1.777505126953125,5.739873886108398,-2.7510874271392822,6.407781600952148
1788681534014579500,1.787579345703125,6.0179009437561035,-3.0859763622283936,6.905251979827881
1788681534024664300,1.797664306640625,5.942333698272705,-3.3143980503082275,7.408857345581055
1788681534034728200,1.807728271484375,5.483694553375244,-3.5526959896087646,7.894132137298584
1788681534044802600,1.817802490234375,5.034707069396973,-3.762861967086792,8.707860946655273
1788681534054873000,1.827873046875,4.717549800872803,-3.7841854095458984,9.357288360595703
1788681534064947200,1.837947265625,4.568959712982178,-3.9007530212402344,9.612719535827637
1788681534075025000,1.84802490234375,4.518008232116699,-4.084208965301514,9.71462345123291
1788681534085099800,1.858099853515625,4.446331977844238,-4.188207149505615,10.360309600830078
1788681534095152400,1.86815234375,3.821146011352539,-4.4210429191589355,11.272425651550293
1788681534105244700,1.87824462890625,3.343801975250244,-4.62470006942749,12.419397354125977
1788681534115320000,1.888320068359375,3.4886510372161865,-4.928015232086182,13.631462097167969
1788681534125397200,1.898397216796875,3.9380877017974854,-4.865092754364014,14.021717071533203
1788681534135446500,1.908446533203125,4.219630718231201,-4.523919105529785,13.618818283081055
1788681534145546000,1.9185458984375,4.348020076751709,-4.328941345214844,12.971036911010742
1788681534155594200,1.92859423828125,4.395978927612305,-4.258237361907959,12.054282188415527
1788681534165694700,1.93869482421875,4.159327030181885,-4.386551380157471,11.075502395629883
1788681534175769600,1.94876953125,3.2940473556518555,-4.504391193389893,10.858602523803711
1788681534185841000,1.9588408203125,1.9569605588912964,-4.666822910308838,11.463811874389648
1788681534195914000,1.9689140625,0.5776011347770691,-4.554444789886475,12.546589851379395
1788681534205988400,1.97898828125,-0.7005284428596497,-4.24589204788208,13.864073753356934
1788681534216066000,1.989066162109375,-2.1557540893554688,-3.9326260089874268,14.840758323669434
1788681534226145300,1.999145263671875,-3.4478750228881836,-3.7247045040130615,15.295731544494629
1788681534236217000,2.009217041015625,-4.124311923980713,-3.5951931476593018,15.178415298461914
1788681534246286800,2.019286865234375,-3.88818359375,-3.3809120655059814,14.342914581298828
1788681534256360000,2.02935986328125,-2.786102533340454,-3.1245827674865723,12.700716018676758
1788681534266414000,2.0394140625,-1.5664812326431274,-3.1017630100250244,11.067346572875977
1788681534276512500,2.049512451171875,-0.7017255425453186,-3.224465847015381,9.778668403625488
1788681534286584600,2.05958447265625,-0.3737199306488037,-3.270928382873535,9.067964553833008
1788681534296658400,2.069658447265625,-0.3895066976547241,-3.217283248901367,9.08143138885498
1788681534306735000,2.079735107421875,-0.6032640337944031,-3.1152305603027344,9.518597602844238
1788681534316807200,2.08980712890625,-1.1281927824020386,-3.0184149742126465,9.829170227050781
1788681534326886400,2.099886474609375,-1.652747392654419,-3.078569173812866,10.005144119262695
1788681534336955400,2.109955322265625,-2.0202572345733643,-3.1956608295440674,10.207754135131836
1788681534347032300,2.1200322265625,-2.3651719093322754,-3.384653091430664,10.246211051940918
1788681534357104400,2.1301044921875,-2.1092917919158936,-3.464409828186035,9.91057300567627
1788681534367157200,2.1401572265625,-1.4131027460098267,-3.4857332706451416,8.995614051818848
1788681534377252600,2.150252685546875,-0.5737854242324829,-3.679588794708252,8.057685852050781
1788681534387328500,2.16032861328125,-0.4329764246940613,-4.036923408508301,7.506121635437012
1788681534397380000,2.170380126953125,-0.7977181077003479,-4.598064422607422,7.42217493057251
1788681534407475700,2.180475830078125,-0.9178770780563354,-4.988319396972656,7.506570339202881
1788681534417550000,2.190550048828125,-0.45908817648887634,-5.113715648651123,7.582960605621338
1788681534427624400,2.20062451171875,-0.3470095992088318,-5.176114559173584,7.712322235107422
1788681534437698800,2.21069873046875,-1.5375263690948486,-5.119551658630371,7.953612804412842
1788681534447773400,2.2207734375,-2.973149538040161,-4.919261455535889,8.6251859664917
1788681534457847300,2.230847412109375,-2.418966770172119,-5.060893535614014,8.899322509765625
1788681534467921700,2.240921630859375,-1.6484078168869019,-5.1921257972717285,8.954164505004883
1788681534477996300,2.250996337890625,-0.7407061457633972,-5.399598121643066,8.833781242370605
1788681534488080400,2.261080322265625,-0.2445826679468155,-5.604452133178711,8.605134963989258
1788681534498149400,2.2711494140625,0.12472294270992279,-5.85576868057251,8.262166023254395
1788681534508224800,2.281224853515625,0.46312838792800903,-6.063016414642334,7.907749176025391
1788681534518296600,2.291296630859375,1.1442787647247314,-6.1945481300354,7.731326103210449
1788681534528347000,2.301346923828125,1.6442928314208984,-6.170680999755859,7.6291985511779785
1788681534538442800,2.31144287109375,1.7368437051773071,-6.011990070343018,7.72399377822876
1788681534548517000,2.32151708984375,1.4613608121871948,-5.887940406799316,8.018256187438965
1788681534558591500,2.331591552734375,0.887949526309967,-5.778630256652832,8.189367294311523
1788681534568644900,2.341644775390625,0.2932897210121155,-5.6318359375,8.488492012023926
1788681534578740000,2.351739990234375,0.0032920273952186108,-5.380669116973877,8.913537979125977
1788681534588816600,2.361816650390625,-0.03785831481218338,-5.291934013366699,9.750835418701172
1788681534598889000,2.371888916015625,-0.26066872477531433,-5.29732084274292,10.404751777648926
1788681534608963000,2.381963134765625,-0.4487631916999817,-5.257143020629883,10.34482192993164
1788681534619040000,2.3920400390625,-0.36915597319602966,-5.147832870483398,9.609652519226074
1788681534629111800,2.40211181640625,-0.27563247084617615,-4.939462661743164,8.670750617980957
1788681534639209700,2.412209716796875,-0.5240309238433838,-4.807182788848877,8.099285125732422
1788681534649256700,2.422256591796875,-0.8978256583213806,-4.680738925933838,8.329427719116211
1788681534659335400,2.43233544921875,-1.0134207010269165,-4.912228584289551,9.114276885986328
1788681534669409800,2.442409912109375,-0.4122515916824341,-5.929389953613281,10.957662582397461
1788681534679484000,2.45248388671875,0.4522048532962799,-6.734066486358643,12.832996368408203
1788681534689536500,2.46253662109375,0.7981669902801514,-5.722890377044678,12.0584716796875
1788681534699633000,2.4726328125,0.6878092288970947,-5.1944451332092285,11.655721664428711
1788681534709707300,2.482707275390625,0.5445312261581421,-4.288538932800293,10.338088035583496
1788681534719782000,2.492781982421875,0.3554641306400299,-2.853140354156494,8.917203903198242
1788681534729855700,2.502855712890625,-0.1537526398897171,-1.6899323463439941,8.167071342468262
1788681534739930400,2.512930419921875,-0.7076362371444702,-1.469366431236267,8.320748329162598
1788681534750005500,2.523005615234375,-0.8400655388832092,-1.9031659364700317,9.216404914855957
1788681534760078800,2.533078857421875,0.6658125519752502,-2.537330150604248,10.234089851379395
1788681534770150700,2.543150634765625,2.837353467941284,-2.981379747390747,10.775030136108398
1788681534780227800,2.553227783203125,4.167332649230957,-2.848576307296753,10.983100891113281
1788681534790305000,2.563304931640625,3.955146312713623,-2.6559178829193115,11.898284912109375
1788681534800376600,2.57337646484375,5.885172367095947,-2.564713716506958,11.578509330749512
1788681534810450400,2.583450439453125,7.468487739562988,-2.5905263423919678,10.532392501831055
1788681534820525300,2.593525390625,9.011177062988281,-2.4962544441223145,9.126472473144531
1788681534830601200,2.603601318359375,9.590947151184082,-2.5445127487182617,7.992369174957275
1788681534840674000,2.613674072265625,9.020304679870605,-2.5405473709106445,7.3092732429504395
1788681534850748400,2.62374853515625,8.671125411987305,-2.382829189300537,7.731700420379639
1788681534860801500,2.633801513671875,8.68055248260498,-3.0615105628967285,9.374496459960938
1788681534870897400,2.6438974609375,9.606734275817871,-3.4315643310546875,10.196455955505371
1788681534880971500,2.653971435546875,10.142362594604492,-1.729062557220459,8.227299690246582
1788681534891048000,2.6640478515625,9.59483814239502,-0.888099193572998,6.477512836456299
1788681534901121300,2.674121337890625,8.913762092590332,-0.826897382736206,5.507411956787109
1788681534911209700,2.684209716796875,7.651195049285889,-0.4819827377796173,4.463315486907959
1788681534921270500,2.6942705078125,5.600187301635742,-0.0752677172422409,3.8429930210113525
1788681534931343400,2.70434326171875,4.400243282318115,-0.26336219906806946,4.022109031677246
1788681534941418000,2.71441796875,4.25202751159668,-0.24173955619335175,4.5755438804626465
1788681534951492600,2.72449267578125,4.484489440917969,0.4586392641067505,4.661884784698486
1788681534961566200,2.734566162109375,5.020042419433594,1.398064136505127,4.479701042175293
1788681534971640800,2.744640869140625,5.951087474822998,2.2411224842071533,4.956820487976074
1788681534981715500,2.754715576171875,4.918363571166992,2.5598504543304443,4.2747721672058105
1788681534991790000,2.7647900390625,3.835062265396118,2.244115114212036,3.5779099464416504
1788681535001843000,2.774843017578125,4.062885284423828,1.508795976638794,4.548609256744385
1788681535011939800,2.78493994140625,4.92651891708374,0.6582558155059814,5.375431537628174
1788681535022001400,2.79500146484375,7.017554759979248,-0.7069628834724426,6.345232963562012
1788681535032076000,2.805075927734375,9.31149959564209,-0.7370400428771973,5.484966278076172
1788681535042141000,2.815140869140625,10.401459693908691,-0.5695207118988037,3.6764464378356934
1788681535052246800,2.825246826171875,10.833763122558594,-0.07534253597259521,2.2327427864074707
1788681535062289400,2.835289306640625,10.430713653564453,0.23740005493164062,1.5386487245559692
1788681535072363300,2.84536328125,9.541791915893555,0.4330512285232544,1.240645408630371
1788681535082439000,2.85543896484375,8.831088066101074,0.750582218170166,1.4718354940414429
1788681535092513500,2.865513427734375,9.222390174865723,1.1686697006225586,2.1960813999176025
1788681535102587000,2.8755869140625,10.460342407226562,1.2993032932281494,3.2068088054656982
1788681535112661200,2.8856611328125,10.894440650939941,1.2538883686065674,3.7374236583709717
1788681535122735600,2.895735595703125,10.552069664001465,1.1842319965362549,4.0212860107421875
1788681535132820000,2.905820068359375,9.541193008422852,1.3631986379623413,4.269684791564941
1788681535142884900,2.915884765625,8.21383285522461,1.702277421951294,4.516586780548096
1788681535152959000,2.925958984375,6.938920021057129,1.6749686002731323,4.705429553985596
1788681535163071500,2.936071533203125,6.223428249359131,1.5654338598251343,4.5942487716674805
1788681535173140500,2.946140380859375,6.046855449676514,1.5779285430908203,4.1436896324157715
1788681535183213600,2.956213623046875,6.2527570724487305,1.682151198387146,3.3219549655914307
1788681535193279200,2.966279296875,6.982913494110107,1.8398691415786743,2.0054430961608887
1788681535203356400,2.9763564453125,6.9240312576293945,1.942894697189331,0.7609820365905762
1788681535213430500,2.986430419921875,5.479429721832275,1.5082722902297974,0.40132805705070496
1788681535223504400,2.99650439453125,3.9344964027404785,1.1528080701828003,0.15472528338432312
1788681535233579300,3.006579345703125,1.9749919176101685,1.8815432786941528,-2.572943925857544
1788681535243654000,3.01665380859375,4.9019036293029785,2.973149538040161,-1.6484826803207397
1788681535253728000,3.02672802734375,7.612064838409424,3.758223295211792,-0.7282862067222595
1788681535263775700,3.036775634765625,9.039458274841309,4.106280326843262,-1.6393548250198364
1788681535273873200,3.046873046875,9.624765396118164,4.506485939025879,-3.737273931503296
1788681535283947300,3.056947265625,9.327435493469238,5.136086463928223,-6.464569091796875
1788681535294025700,3.067025634765625,8.807146072387695,6.775665760040283,-10.819023132324219
1788681535304100900,3.077100830078125,7.277774810791016,7.301866054534912,-12.692037582397461
1788681535314152400,3.08715234375,5.754388809204102,5.488258361816406,-10.27553939819336
1788681535324244700,3.09724462890625,5.253776550292969,3.402010917663574,-6.412569999694824
1788681535334321000,3.10732080078125,5.223175525665283,2.9105262756347656,-3.598485231399536
1788681535344397300,3.117397216796875,5.714136600494385,3.8423197269439697,-2.821866035461426
1788681535354472200,3.12747216796875,6.812625885009766,4.871377468109131,-2.839897394180298
1788681535364545800,3.1375458984375,8.193107604980469,5.455039024353027,-2.7012581825256348
1788681535374621200,3.14762109375,9.501015663146973,5.804293155670166,-2.564788579940796
1788681535384694800,3.15769482421875,9.959878921508789,5.679345607757568,-3.250128746032715
1788681535394764000,3.167763916015625,9.532215118408203,4.960935592651367,-4.411092281341553
1788681535404841500,3.177841552734375,8.089408874511719,3.910329818725586,-5.521328449249268
1788681535414914000,3.1879140625,6.074837684631348,3.051260471343994,-5.9753289222717285
1788681535424989000,3.197989013671875,5.2812347412109375,2.8850131034851074,-6.257320880889893
1788681535435044400,3.20804443359375,5.97914457321167,3.2328455448150635,-6.266523838043213
1788681535445141500,3.2181416015625,7.35087251663208,3.8958899974823,-5.567566394805908
1788681535455216400,3.22821630859375,8.25311279296875,4.613402366638184,-5.309366703033447
1788681535465290800,3.238290771484375,8.819266319274902,4.721141338348389,-6.7795562744140625
1788681535475365000,3.248365234375,6.881683826446533,3.8925979137420654,-8.142904281616211
1788681535485439000,3.25843896484375,4.071938514709473,3.2585084438323975,-7.626804351806641
1788681535495513900,3.268513916015625,3.029712677001953,3.6605846881866455,-7.122824668884277
1788681535505588000,3.278587890625,3.212270498275757,4.392462253570557,-6.929867267608643
1788681535515662600,3.28866259765625,3.913322687149048,4.890381336212158,-7.080402851104736
1788681535525712400,3.29871240234375,4.88102912902832,5.031863689422607,-7.427262783050537
1788681535535810600,3.308810546875,5.586121559143066,4.819453239440918,-7.426290035247803
1788681535545885400,3.318885498046875,5.1647419929504395,4.712013244628906,-7.506421089172363
1788681535555962400,3.32896240234375,3.9671173095703125,4.863521575927734,-7.6595001220703125
1788681535566034400,3.339034423828125,3.2527475357055664,5.010390758514404,-7.6810479164123535
1788681535576109000,3.349109130859375,2.937760353088379,4.910208225250244,-7.476193904876709
1788681535586182700,3.3591826171875,3.186607599258423,4.905943870544434,-7.398382663726807
1788681535596256800,3.3692568359375,3.0573954582214355,5.080346584320068,-7.725340843200684
1788681535606332000,3.379331787109375,2.8289737701416016,5.061118125915527,-8.310797691345215
1788681535616406500,3.389406494140625,3.166780710220337,5.054832935333252,-8.92341423034668
1788681535626479900,3.39947998046875,3.2304513454437256,5.289016246795654,-9.568352699279785
1788681535636554200,3.40955419921875,3.2252142429351807,5.739051342010498,-9.729736328125
1788681535646629600,3.419629638671875,3.1699979305267334,6.061669826507568,-9.32429313659668
1788681535656704300,3.429704345703125,2.5264065265655518,6.549787521362305,-8.54804801940918
1788681535666777900,3.43977783203125,2.1647324562072754,7.136292457580566,-7.884555339813232
1788681535676853000,3.44985302734375,1.9141643047332764,7.6507463455200195,-7.085714817047119
1788681535686926600,3.459926513671875,2.4186675548553467,7.639822959899902,-6.243628978729248
1788681535696977000,3.469976806640625,2.4987235069274902,7.629796981811523,-6.777685642242432
1788681535707076000,3.480076171875,2.056469678878784,7.750704288482666,-6.915052890777588
1788681535717150500,3.490150390625,1.847051739692688,7.410428524017334,-6.666131019592285
1788681535727199500,3.500199462890625,2.056619167327881,6.988225936889648,-6.642862319946289
1788681535737299000,3.510298828125,2.152761459350586,6.578817367553711,-7.099107265472412
1788681535747373600,3.52037353515625,2.1571009159088135,6.1239190101623535,-7.586177825927734
1788681535757447000,3.530447021484375,1.4792425632476807,5.897741794586182,-7.9823431968688965
1788681535767522300,3.540522216796875,1.4879215955734253,5.541529655456543,-8.154950141906738
1788681535777596400,3.550596435546875,1.38407301902771,4.991760730743408,-8.405742645263672
1788681535787670300,3.560670166015625,1.1444283723831177,4.806434631347656,-8.541913032531738
1788681535797745000,3.570744873046875,1.2644377946853638,4.84982967376709,-8.533682823181152
1788681535807820300,3.5808203125,1.2644377946853638,4.865317344665527,-8.527623176574707
1788681535817867500,3.590867431640625,1.203460454940796,4.944550037384033,-8.421903610229492
1788681535827967700,3.6009677734375,1.1427075862884521,4.999841213226318,-8.297255516052246
1788681535838042600,3.611042724609375,0.9985317587852478,5.038148403167725,-8.41584300994873
1788681535848117200,3.6211171875,0.8724620342254639,5.119027614593506,-8.434024810791016
1788681535858191400,3.63119140625,0.5946598649024963,5.339219570159912,-8.255132675170898
1788681535868252400,3.64125244140625,0.7877671718597412,5.309666156768799,-8.398111343383789
1788681535878340600,3.651340576171875,0.8322095274925232,5.466037273406982,-8.719308853149414
1788681535888391700,3.6613916015625,0.7993640899658203,5.611260414123535,-8.649203300476074
1788681535898489300,3.6714892578125,0.8402899503707886,5.575272560119629,-8.361824035644531
1788681535908563500,3.6815634765625,0.6729951500892639,5.50928258895874,-8.205079078674316
1788681535918638000,3.69163818359375,0.5014356374740601,5.546018600463867,-8.033519744873047
1788681535928711400,3.70171142578125,0.4412812888622284,5.435735702514648,-7.771204471588135
1788681535938786000,3.7117861328125,0.39564183354377747,5.403788089752197,-7.866748332977295
1788681535948861200,3.721861083984375,0.4313304126262665,5.442020416259766,-7.847519874572754
1788681535958934800,3.731934814453125,0.5803694725036621,5.289539813995361,-7.850961685180664
1788681535969010000,3.742010009765625,0.2817676067352295,5.093813896179199,-8.099209785461426
1788681535979084500,3.75208447265625,0.17328034341335297,4.851101398468018,-8.133477210998535
1788681535989158100,3.762158203125,0.3910030722618103,4.358270168304443,-8.52373218536377
1788681535999232300,3.772232177734375,0.5387701988220215,3.3031005859375,-8.799589157104492
1788681536009307400,3.782307373046875,-0.8306383490562439,3.2563388347625732,-8.361150741577148
1788681536019382000,3.792382080078125,-0.24106618762016296,3.4857332706451416,-8.190339088439941
1788681536029455400,3.802455322265625,0.10444705188274384,3.8085763454437256,-8.465747833251953
1788681536039529700,3.81252978515625,-0.353743314743042,3.207407236099243,-9.405471801757812
1788681536049605000,3.822605224609375,-0.7858967185020447,3.1280994415283203,-9.167847633361816
1788681536059668000,3.83266796875,-0.805499255657196,3.115454912185669,-9.041254043579102
1788681536069754000,3.842754150390625,-0.7148188352584839,2.722057580947876,-9.355268478393555
1788681536079828200,3.852828125,-0.5024082660675049,2.853738784790039,-9.490316390991211
1788681536089877800,3.862877685546875,-0.2463783174753189,2.7888708114624023,-9.250521659851074
1788681536099976400,3.8729765625,-0.20066402852535248,2.7979986667633057,-8.911518096923828
1788681536110051600,3.883051513671875,-0.38569092750549316,3.4910452365875244,-8.398634910583496
1788681536120125700,3.893125732421875,-0.15195699036121368,3.988440752029419,-7.6577043533325195
1788681536130200600,3.90320068359375,-0.16924013197422028,4.239158630371094,-7.416338920593262
1788681536140273700,3.913273681640625,-0.24241292476654053,5.397353649139404,-7.149759769439697
1788681536150348800,3.923348876953125,-0.18914192914962769,5.719598293304443,-7.0551886558532715
1788681536160422700,3.933422607421875,-0.15921440720558167,6.061669826507568,-7.344812393188477
1788681536170496800,3.943496826171875,0.04025251790881157,6.1519012451171875,-8.019678115844727
1788681536180572200,3.953572265625,-0.14784196019172668,6.5948286056518555,-8.555155754089355
1788681536190646000,3.96364599609375,0.15031097829341888,6.52562141418457,-9.044994354248047
1788681536200720400,3.973720458984375,-0.14686931669712067,6.414365768432617,-9.43607234954834
1788681536210795300,3.983795166015625,-0.2777273952960968,5.84267520904541,-9.852813720703125
1788681536220870100,3.9938701171875,-0.3478326201438904,5.079224109649658,-10.329334259033203
1788681536230943500,4.003943603515625,-0.5276222229003906,4.432565212249756,-10.59224796295166
1788681536241018000,4.01401806640625,-0.7306056022644043,3.7562780380249023,-10.469619750976562
1788681536251092500,4.024092529296875,-0.6774094700813293,3.163712978363037,-10.649633407592773
1788681536261142000,4.03414208984375,-0.5678747296333313,2.9987375736236572,-11.233593940734863
1788681536271215900,4.0442158203125,-0.19954174757003784,2.849174737930298,-11.389740943908691
1788681536281316000,4.054316162109375,-0.054019175469875336,2.3728034496307373,-11.355548858642578
1788681536291390200,4.06439013671875,-0.127191960811615,0.9798270463943481,-11.837681770324707
1788681536301464600,4.074464599609375,0.7721300721168518,1.8640356063842773,-11.714754104614258
1788681536311539200,4.084539306640625,1.3824269771575928,2.9682862758636475,-10.712032318115234
1788681536321613600,4.094613525390625,1.8685247898101807,3.5580081939697266,-9.387964248657227
1788681536331687700,4.104687744140625,1.3825018405914307,4.202123165130615,-8.41808795928955
1788681536341762800,4.1147626953125,1.5123872756958008,4.512471675872803,-8.052823066711426
1788681536351836700,4.124836669921875,0.8955062627792358,4.5685858726501465,-7.785046100616455
1788681536361910000,4.134909912109375,-0.14185644686222076,5.025803565979004,-7.736039638519287
1788681536371985200,4.144985107421875,-0.08259996026754379,5.532027721405029,-7.644087314605713
1788681536382060300,4.155060302734375,-0.019527707248926163,6.128407955169678,-7.8955535888671875
1788681536392108000,4.16510791015625,0.23508067429065704,6.986205577850342,-7.958924770355225
1788681536402230500,4.17523046875,0.28206688165664673,8.443002700805664,-7.377208709716797
1788681536412272400,4.1852724609375,-0.18966566026210785,9.436297416687012,-6.696881294250488
1788681536422331100,4.1953310546875,-1.4879215955734253,9.35541820526123,-5.383736610412598
1788681536432411400,4.205411376953125,-1.8297686576843262,9.010727882385254,-4.587889194488525
1788681536442480400,4.21548046875,-1.8748096227645874,8.45355224609375,-4.57808780670166
1788681536452555000,4.225554931640625,-1.0018237829208374,7.8511857986450195,-5.272331237792969
1788681536462632000,4.2356318359375,-1.2020388841629028,6.8983683586120605,-5.724236965179443
1788681536472703500,4.245703369140625,-1.1204116344451904,5.563451290130615,-6.2317328453063965
1788681536482786000,4.2557861328125,-1.2941408157348633,4.787430763244629,-6.6589484214782715
1788681536492859100,4.265859130859375,-0.9148843288421631,4.313753128051758,-6.956577301025391
1788681536502926800,4.2759267578125,1.1079168319702148,3.8650646209716797,-8.129586219787598
1788681536513001200,4.286001220703125,3.236511707305908,3.70046329498291,-10.343849182128906
1788681536523101200,4.29610107421875,2.1651065349578857,3.661332845687866,-9.312023162841797
1788681536533176300,4.30617626953125,2.025569438934326,2.970979928970337,-7.610119819641113
1788681536543250200,4.316250244140625,2.0935049057006836,2.3597850799560547,-6.954557418823242
1788681536553324500,4.326324462890625,2.174234390258789,3.2620997428894043,-6.29824686050415
1788681536563399200,4.336399169921875,3.2399535179138184,4.599261283874512,-5.198185920715332
1788681536573473500,4.3464736328125,0.11439795047044754,5.638045787811279,-5.001636981964111
1788681536583548000,4.3565478515625,-0.891914963722229,5.346477031707764,-7.055263519287109
1788681536593606400,4.3666064453125,1.3524994850158691,5.0766801834106445,-5.747206211090088
1788681536603696400,4.3766962890625,1.617133617401123,5.139004230499268,-3.748422145843506
1788681536613771300,4.386771240234375,1.862464427947998,6.144718647003174,-1.9687819480895996
1788681536623818800,4.39681884765625,3.2280571460723877,8.200514793395996,-0.11634323745965958
1788681536633920000,4.406919921875,0.0038157589733600616,10.840346336364746,-2.792013168334961
1788681536643967500,4.416967529296875,-5.408576488494873,11.954174041748047,-4.829703330993652
1788681536654068500,4.427068359375,-6.103418827056885,11.095179557800293,-1.201964020729065
1788681536664142600,4.437142578125,-4.155062198638916,11.327491760253906,-3.597288131713867
1788681536674217200,4.44721728515625,-3.24414324760437,10.415225982666016,-6.894777297973633
1788681536684291300,4.457291259765625,-1.48081374168396,8.874333381652832,-6.376956462860107
1788681536694366500,4.467366455078125,-2.1303906440734863,8.036063194274902,-6.431349277496338
1788681536704440300,4.4774404296875,-2.927210807800293,6.75883150100708,-8.746393203735352
1788681536714515200,4.48751513671875,1.280897855758667,5.682712554931641,-4.269460201263428
1788681536724588800,4.4975888671875,1.9621978998184204,5.983932971954346,-2.4652795791625977
1788681536734663700,4.50766357421875,1.6377836465835571,6.949319839477539,-2.277559280395508
1788681536744737800,4.51773779296875,0.12030863761901855,7.972766399383545,-2.1422119140625
1788681536754801700,4.5278017578125,-0.7514800429344177,8.340500831604004,-0.2075473666191101
1788681536764886500,4.537886474609375,-0.3586813509464264,8.11477279663086,1.231667160987854
1788681536774961700,4.547961669921875,1.174281120300293,8.407388687133789,1.3896844387054443
1788681536785035500,4.558035400390625,-0.999878466129303,9.005340576171875,-0.02199672721326351
1788681536795083500,4.56808349609375,-0.6466588973999023,9.663521766662598,-1.8215385675430298
1788681536805184800,4.578184814453125,-1.944989562034607,9.338957786560059,-1.6558897495269775
1788681536815258000,4.588258056640625,-2.9320740699768066,8.987982749938965,-1.9285295009613037
1788681536825352000,4.59835205078125,-1.4495395421981812,8.665064811706543,-2.181865930557251
1788681536835408000,4.608407958984375,2.339808464050293,6.645630359649658,-2.8325650691986084
1788681536845482000,4.61848193359375,2.367192029953003,5.147309303283691,-2.0347721576690674
1788681536855556400,4.628556396484375,1.8477251529693604,3.8820483684539795,-1.6644939184188843
1788681536865630000,4.6386298828125,0.15307927131652832,3.8143374919891357,-1.3204022645950317
1788681536875705000,4.648705078125,-0.7882909178733826,3.7661540508270264,-0.2997989356517792
1788681536885779700,4.65877978515625,0.41120412945747375,7.184774875640869,1.9137901067733765
1788681536895854000,4.66885400390625,0.5460276007652283,12.328417778015137,4.737377166748047
1788681536905928000,4.678927978515625,-0.5223848819732666,16.838869094848633,5.606696605682373
1788681536916001500,4.68900146484375,-1.8941876888275146,20.687623977661133,7.376385688781738
1788681536926083800,4.699083740234375,-0.4587889015674591,25.20001983642578,6.420276165008545
1788681536936151800,4.70915185546875,0.8153005242347717,27.714006423950195,0.1066167950630188
1788681536946225700,4.7192255859375,1.2592753171920776,25.46891975402832,-9.244536399841309
1788681536956274200,4.729274169921875,-0.31042322516441345,15.618200302124023,-4.3063459396362305
1788681536966374000,4.739373779296875,-0.013916297815740108,10.728866577148438,-2.029834032058716
1788681536976449300,4.74944921875,0.3188777267932892,8.192584037780762,-1.049782633781433
1788681536986523600,4.759523681640625,0.38397011160850525,6.667178153991699,0.5765537023544312
1788681536996597200,4.76959716796875,0.38561612367630005,6.090400218963623,1.6910545825958252
1788681537006672600,4.779672607421875,0.7912088632583618,6.757110595703125,1.6800562143325806
1788681537016745700,4.789745849609375,0.9923965930938721,8.3283052444458,0.6022165417671204
1788681537026820400,4.7998203125,0.758288562297821,9.576807022094727,-0.7371148467063904
1788681537036896000,4.80989599609375,0.6563105583190918,9.853411674499512,-0.6994810104370117
1788681537046969900,4.819969970703125,0.6625205278396606,9.960103988647461,-0.7694365978240967
1788681537057044500,4.83004443359375,0.40379709005355835,9.909825325012207,-0.7065888047218323
1788681537067118800,4.840118896484375,0.25827449560165405,9.823484420776367,-0.5214122533798218
1788681537077193000,4.85019287109375,-0.005087678786367178,9.658957481384277,-0.07713818550109863
1788681537087267600,4.860267578125,-0.14447510242462158,9.665916442871094,-0.08649053424596786
1788681537097341700,4.870341796875,-0.21009120345115662,9.635688781738281,0.16190789639949799
1788681537107416000,4.880416015625,-0.06434416770935059,9.408913612365723,1.1463737487792969
1788681537117490200,4.890490234375,0.2944119870662689,9.690082550048828,1.0795605182647705
1788681537127545300,4.90054541015625,0.2521393597126007,10.001627922058105,0.6456114649772644
1788681537137639700,4.9106396484375,0.32097265124320984,10.122310638427734,0.4489128291606903
1788681537147713800,4.9207138671875,0.48736968636512756,10.263045310974121,-0.06673837453126907
1788681537157762300,4.93076220703125,0.6189759373664856,10.25279426574707,-0.30129531025886536
1788681537167862300,4.9408623046875,0.634912371635437,10.163984298706055,-0.4356698989868164
1788681537177937200,4.950937255859375,0.4702361822128296,10.120739936828613,-0.7217770218849182
1788681537188011500,4.961011474609375,0.24158991873264313,10.099191665649414,-1.105447769165039
1788681537198085600,4.971085693359375,0.038980595767498016,9.99377155303955,-1.407341718673706
1788681537208160300,4.98116015625,-0.02207154780626297,9.87271499633789,-1.6035165786743164
1788681537218233900,4.99123388671875,0.045415014028549194,9.72053337097168,-1.6941221952438354
1788681537228308200,5.00130810546875,0.15225626528263092,9.619528770446777,-1.7272669076919556
1788681537238366200,5.0113662109375,0.23769934475421906,9.565808296203613,-1.66696298122406
1788681537248458000,5.0214580078125,0.2744353711605072,9.598953247070312,-1.5988030433654785
1788681537258532000,5.031531982421875,0.2637362778186798,9.6641206741333,-1.4992940425872803
1788681537268607000,5.04160693359375,0.2388216257095337,9.763404846191406,-1.3136684894561768
1788681537278680600,5.0516806640625,0.21749825775623322,9.80792236328125,-0.9468319416046143
1788681537288749000,5.0617490234375,0.23702596127986908,9.802610397338867,-0.5982511639595032
1788681537298805500,5.071805419921875,0.24346038699150085,9.828198432922363,-0.4572925269603729
1788681537308904700,5.08190478515625,0.20462942123413086,9.857003211975098,-0.29463645815849304
1788681537318978300,5.091978271484375,0.1488146036863327,9.89314079284668,-0.15928922593593597
1788681537329052200,5.10205224609375,0.09606734663248062,9.922320365905762,-0.10362404584884644
1788681537339127300,5.112127197265625,0.076015904545784,9.910049438476562,-0.06539163738489151
1788681537349202000,5.122201904296875,0.07137713581323624,9.882665634155273,-0.0727238729596138
1788681537359276000,5.132276123046875,0.10115502029657364,9.856779098510742,-0.1314566433429718
1788681537369350700,5.1423505859375,0.1487397849559784,9.827524185180664,-0.21061493456363678
1788681537379399700,5.152399658203125,0.16879121959209442,9.800589561462402,-0.2992003858089447
1788681537389509000,5.162509033203125,0.14484919607639313,9.761459350585938,-0.38045361638069153
1788681537399573000,5.172572998046875,0.09434650838375092,9.714174270629883,-0.5023334622383118
1788681537409648000,5.182648193359375,0.06322188675403595,9.673847198486328,-0.5776011347770691
1788681537419722800,5.19272265625,0.043020810931921005,9.62379264831543,-0.6255599856376648
1788681537429797000,5.202797119140625,0.03808277100324631,9.61212158203125,-0.6804770231246948
1788681537439870700,5.21287060546875,0.04257189854979515,9.619603157043457,-0.7282114028930664
1788681537449945900,5.22294580078125,0.04967968538403511,9.618556022644043,-0.7521534562110901
1788681537460035000,5.23303515625,0.05693710967898369,9.614889144897461,-0.7354688048362732
1788681537470094600,5.243094482421875,0.055665191262960434,9.630376815795898,-0.7246949076652527
1788681537480169200,5.253169189453125,0.04975450411438942,9.639803886413574,-0.7066636085510254
1788681537490218200,5.26321826171875,0.07160159200429916,9.666065216064453,-0.6816741228103638
1788681537500317400,5.2733173828125,0.09516951441764832,9.723451614379883,-0.673069953918457
1788681537510392000,5.28339208984375,0.08424597233533859,9.763928413391113,-0.6429927945137024
1788681537520466400,5.293466552734375,0.027907414361834526,9.81256103515625,-0.6281786561012268
1788681537530540000,5.3035400390625,-0.04496610164642334,9.832387924194336,-0.5860556960105896
1788681537540615000,5.313614990234375,-0.09980828315019608,9.832088470458984,-0.5690718293190002
1788681537550689300,5.323689208984375,-0.1463455855846405,9.829469680786133,-0.5534346699714661
1788681537560763400,5.333763427734375,-0.15809212625026703,9.81495475769043,-0.5295674800872803
1788681537570838500,5.343838623046875,-0.17993922531604767,9.828048706054688,-0.5377227663993835
1788681537580912600,5.35391259765625,-0.16340427100658417,9.856779098510742,-0.5448305010795593
1788681537590986800,5.36398681640625,-0.13250410556793213,9.861865997314453,-0.5723638534545898
1788681537601061000,5.37406103515625,-0.10175357013940811,9.876530647277832,-0.6129904389381409
1788681537611136300,5.38413623046875,-0.08521861582994461,9.874436378479004,-0.6596025824546814
1788681537621189600,5.394189697265625,-0.07564181089401245,9.856703758239746,-0.6860135793685913
1788681537631284000,5.404283935546875,-0.06239888072013855,9.822287559509277,-0.7208791971206665
1788681537641358800,5.41435888671875,-0.04556465148925781,9.790189743041992,-0.7437736988067627
1788681537651433700,5.424433837890625,-0.042347442358732224,9.77013874053955,-0.7632266283035278
1788681537661507300,5.43450732421875,-0.02910451404750347,9.736919403076172,-0.7909095883369446
1788681537671582200,5.444582275390625,-0.04354454204440117,9.72270393371582,-0.8291419744491577
1788681537681657000,5.454656982421875,-0.037559039890766144,9.712079048156738,-0.8542810678482056
1788681537691730400,5.46473046875,-0.03164835274219513,9.696741104125977,-0.8782979249954224
1788681537701805600,5.4748056640625,-0.03404255583882332,9.681328773498535,-0.9046341776847839
1788681537711880000,5.4848798828125,-0.019527707248926163,9.662249565124512,-0.8987982869148254
1788681537721954300,5.494954345703125,-0.025513211265206337,9.661052703857422,-0.904708981513977
1788681537732028400,5.5050283203125,-0.036586396396160126,9.65491771697998,-0.8926631212234497
1788681537742076200,5.515076171875,-0.03785831481218338,9.668010711669922,-0.8866028189659119
1788681537752151300,5.5251513671875,-0.03785831481218338,9.679832458496094,-0.8638579249382019
1788681537762251500,5.53525146484375,-0.041524436324834824,9.719037055969238,-0.8302642703056335
1788681537772320300,5.5453203125,-0.05596446618437767,9.749937057495117,-0.8109610080718994
1788681537782411800,5.555411865234375,-0.06793547421693802,9.778443336486816,-0.7808838486671448
1788681537792461300,5.56546142578125,-0.07998129725456238,9.803433418273926,-0.7663689851760864
1788681537802525200,5.575525146484375,-0.07638999819755554,9.823558807373047,-0.732850193977356
1788681537812598500,5.5855986328125,-0.08215104788541794,9.812860488891602,-0.71766197681427
1788681537822673400,5.59567333984375,-0.07122749835252762,9.794978141784668,-0.704718291759491
1788681537832753400,5.60575341796875,-0.058059390634298325,9.77717113494873,-0.7203554511070251
1788681537842822000,5.61582177734375,-0.05925649031996727,9.764078140258789,-0.7312041521072388
1788681537852896300,5.625896240234375,-0.03538929298520088,9.761834144592285,-0.749160647392273
1788681537862971000,5.635970947265625,-0.024765023961663246,9.76325511932373,-0.7754969000816345
1788681537873044500,5.64604443359375,-0.00942716933786869,9.769390106201172,-0.8029553890228271
1788681537883144700,5.656144775390625,0.006209960673004389,9.748066902160645,-0.8174702525138855
1788681537893219600,5.666219482421875,0.01227028388530016,9.727790832519531,-0.8295160531997681
1788681537903293700,5.676293701171875,0.008753799833357334,9.709909439086914,-0.8379706144332886
1788681537913368600,5.68636865234375,-0.006658873520791531,9.690755844116211,-0.8427590131759644
1788681537923442200,5.696442138671875,-0.0008978256373666227,9.701679229736328,-0.8666262030601501
1788681537933517300,5.706517333984375,0.01818096823990345,9.704148292541504,-0.8702923059463501
1788681537943591200,5.716591064453125,0.016834231093525887,9.716194152832031,-0.8952817916870117
1788681537953666000,5.726666015625,0.03321954980492592,9.748665809631348,-0.9154828786849976
1788681537963740400,5.736740478515625,0.03681085258722305,9.751059532165527,-0.9178770780563354
1788681537973814500,5.746814453125,0.044517189264297485,9.766472816467285,-0.9044845104217529
1788681537983889000,5.756888916015625,0.030226796865463257,9.7698392868042,-0.8757541179656982
1788681537993937200,5.766937255859375,0.04825812950730324,9.76864242553711,-0.863932728767395
1788681538004038000,5.777037841796875,0.05184943228960037,9.76744556427002,-0.8627356290817261
1788681538014112500,5.787112548828125,0.0627729743719101,9.751882553100586,-0.8426093459129333
1788681538024162000,5.797162109375,0.08551789075136185,9.756670951843262,-0.8283189535140991
1788681538034261200,5.80726123046875,0.11783961206674576,9.755548477172852,-0.8224831223487854
1788681538044335400,5.81733544921875,0.14769232273101807,9.7698392868042,-0.8022072315216064
1788681538054409700,5.82740966796875,0.14028525352478027,9.775525093078613,-0.7922562956809998
1788681538064484000,5.837484130859375,0.13916297256946564,9.776647567749023,-0.7742998003959656
1788681538074559000,5.84755908203125,0.13422493636608124,9.788619041442871,-0.7790133953094482
1788681538084632800,5.8576328125,0.11754033714532852,9.786149978637695,-0.7789385318756104
1788681538094707500,5.86770751953125,0.10669161379337311,9.800439834594727,-0.7824550271034241
1788681538104806000,5.877805908203125,0.12592004239559174,9.77904224395752,-0.7861959934234619
1788681538114856400,5.8878564453125,0.12831424176692963,9.768342971801758,-0.7969698905944824
1788681538124930600,5.8979306640625,0.12831424176692963,9.761235237121582,-0.8018330931663513
1788681538135005200,5.908005126953125,0.12951134145259857,9.778143882751465,-0.8008604645729065
1788681538145079000,5.9180791015625,0.13534721732139587,9.792509078979492,-0.8115595579147339
1788681538155165700,5.928165771484375,0.14731822907924652,9.797297477722168,-0.8019827604293823
1788681538165228000,5.93822802734375,0.16886603832244873,9.800889015197754,-0.7865700721740723
1788681538175303000,5.948302978515625,0.162880539894104,9.793706893920898,-0.7889642715454102
1788681538185376800,5.958376708984375,0.16894085705280304,9.790115356445312,-0.7782651782035828
1788681538195432700,5.9684326171875,0.15592238306999207,9.768567085266113,-0.7855226397514343
1788681538205526000,5.978526123046875,0.1404348909854889,9.753080368041992,-0.795024573802948
1788681538215600400,5.988600341796875,0.1379658728837967,9.732504844665527,-0.823156476020813
1788681538225674800,5.9986748046875,0.13684359192848206,9.715744972229004,-0.824428379535675
1788681538235749400,6.008749267578125,0.11776479333639145,9.700258255004883,-0.8375964760780334
1788681538245823200,6.0188232421875,0.10691606998443604,9.701455116271973,-0.8530839681625366
1788681538255872500,6.02887255859375,0.12008418142795563,9.700332641601562,-0.8602666258811951
1788681538265945900,6.03894580078125,0.12592004239559174,9.718289375305176,-0.8542062640190125
1788681538276021200,6.049021240234375,0.13190555572509766,9.727790832519531,-0.841038167476654
1788681538286095600,6.059095703125,0.15330372750759125,9.756446838378906,-0.8278700709342957
1788681538296170000,6.069169921875,0.13355156779289246,9.775824546813965,-0.8281693458557129
1788681538306270200,6.079270263671875,0.10975918173789978,9.77208423614502,-0.8150012493133545
1788681538316344300,6.08934423828125,0.08574234694242477,9.77440357208252,-0.824428379535675
1788681538326392300,6.099392333984375,0.0967407152056694,9.742231369018555,-0.8306383490562439
1788681538336493300,6.109493408203125,0.11596914380788803,9.731532096862793,-0.8200140595436096
1788681538346566100,6.119566162109375,0.13377602398395538,9.728165626525879,-0.849941611289978
1788681538356635000,6.129634765625,0.11701660603284836,9.729287147521973,-0.8558523058891296
1788681538366737400,6.1397373046875,0.10137947648763657,9.736470222473145,-0.8652794361114502
1788681538376791000,6.149791015625,0.07564181089401245,9.725321769714355,-0.8659528493881226
1788681538386865700,6.15986572265625,0.054093994200229645,9.724050521850586,-0.8718634843826294
1788681538396938500,6.1699384765625,0.06838438659906387,9.739612579345703,-0.8598924875259399
1788681538407014000,6.180013916015625,0.08274959772825241,9.745597839355469,-0.8527098894119263
1788681538417088000,6.190087890625,0.10063128918409348,9.75165843963623,-0.8563759922981262
1788681538427162000,6.200162109375,0.11148001998662949,9.750386238098145,-0.8372972011566162
1788681538437237500,6.210237548828125,0.09127894043922424,9.740659713745117,-0.8253262042999268
1788681538447311400,6.220311279296875,0.10100538283586502,9.716793060302734,-0.8182932734489441
1788681538457386000,6.230385986328125,0.09030629694461823,9.721955299377441,-0.8236802220344543
1788681538467459600,6.24045947265625,0.10347440838813782,9.731532096862793,-0.8188918232917786
1788681538477535000,6.250534912109375,0.09614216536283493,9.74821662902832,-0.8176198601722717
1788681538487621600,6.26062158203125,0.10564415156841278,9.764976501464844,-0.807968258857727
1788681538497684200,6.270684326171875,0.114023856818676,9.761384963989258,-0.8092401623725891
1788681538507758300,6.28075830078125,0.11529577523469925,9.757793426513672,-0.7997381687164307
1788681538517831700,6.290831787109375,0.12389993667602539,9.725471496582031,-0.7891887426376343
1788681538527899400,6.3008994140625,0.12756605446338654,9.721880912780762,-0.7844003438949585
1788681538537981200,6.310981201171875,0.11993454396724701,9.721805572509766,-0.7890390753746033
1788681538548056000,6.32105615234375,0.09232640266418457,9.739612579345703,-0.790086567401886
1788681538558103800,6.331103759765625,0.08671499043703079,9.707216262817383,-0.7662941813468933
1788681538568204000,6.3412041015625,0.06434416770935059,9.779266357421875,-0.8494178652763367
1788681538578279000,6.35127880859375,0.08462006598711014,9.791237831115723,-0.8423100709915161
1788681538588353300,6.361353271484375,0.06329670548439026,9.766023635864258,-0.8316109776496887
1788681538598427100,6.37142724609375,0.06232406198978424,9.730185508728027,-0.8305635452270508
1788681538608502500,6.38150244140625,0.042122986167669296,9.703924179077148,-0.8473977446556091
1788681538618550800,6.39155078125,0.025438392534852028,9.683648109436035,-0.8617630004882812
1788681538628650000,6.40164990234375,0.032695818692445755,9.676465034484863,-0.8617630004882812
1788681538638725000,6.41172509765625,0.021622633561491966,9.698087692260742,-0.8926631212234497
1788681538648799700,6.4217998046875,0.02042553387582302,9.705270767211914,-0.8890718221664429
1788681538658851300,6.431851318359375,-0.0010474632726982236,9.71462345123291,-0.8686463236808777
1788681538668947700,6.44194775390625,0.0007481880020350218,9.759215354919434,-0.9364321231842041
1788681538679023000,6.452023193359375,-0.00022445640934165567,9.748291969299316,-0.9066542387008667
1788681538689071600,6.462071533203125,0.02132335864007473,9.74709415435791,-0.8972271084785461
1788681538699171800,6.472171875,0.018330607563257217,9.753154754638672,-0.918550431728363
1788681538709246200,6.48224609375,0.002917933277785778,9.735198020935059,-0.9245359301567078
1788681538719320000,6.492320068359375,-0.012644377537071705,9.735198020935059,-0.9340379238128662
1788681538729395000,6.50239501953125,-0.013841478154063225,9.735198020935059,-0.938826322555542
1788681538739469300,6.51246923828125,-0.015113398432731628,9.739986419677734,-0.9411457180976868
1788681538749543400,6.52254345703125,0.005312134977430105,9.737592697143555,-0.9293243288993835
1788681538759617500,6.532617431640625,0.008903437294065952,9.732804298400879,-0.9258078932762146
1788681538769692000,6.54269189453125,-0.0014963760040700436,9.703924179077148,-0.8841338157653809
1788681538779766800,6.552766845703125,-0.0014963760040700436,9.741482734680176,-0.9416694641113281
1788681538789841400,6.56284130859375,-0.0014215572737157345,9.749712944030762,-0.9201216697692871
1788681538799915300,6.572915283203125,-0.014440028928220272,9.755474090576172,-0.8854057192802429
1788681538809990700,6.58299072265625,-0.01107318326830864,9.772308349609375,-0.9032126069068909
1788681538820063700,6.593063720703125,-0.0003740940010175109,9.790265083312988,-0.8972271084785461
1788681538830138400,6.603138427734375,0.008155249990522861,9.785326957702637,-0.8686463236808777
1788681538840213800,6.6132138671875,0.02513911761343479,9.758990287780762,-0.8389432430267334
1788681538850288000,6.6232880859375,0.04915595427155495,9.757793426513672,-0.8247276544570923
1788681538860336000,6.633336181640625,0.04361936077475548,9.762507438659668,-0.8045265674591064
1788681538870436000,6.64343603515625,0.03643675893545151,9.766098022460938,-0.8068459630012512
1788681538880511200,6.65351123046875,0.020874446257948875,9.764901161193848,-0.8163479566574097
1788681538890584600,6.66358447265625,0.013542203232645988,9.782782554626465,-0.826972246170044
1788681538900660000,6.673659912109375,0.007556699216365814,9.777994155883789,-0.824578046798706
1788681538910734300,6.683734375,0.01975216343998909,9.75053596496582,-0.8200140595436096
1788681538920808000,6.693807861328125,0.030451253056526184,9.751808166503906,-0.8271966576576233
1788681538930882300,6.70388232421875,0.034267012029886246,9.725471496582031,-0.8094646334648132
1788681538940957700,6.713957763671875,0.0537199005484581,9.734600067138672,-0.8146271109580994
1788681538951031600,6.724031494140625,0.07302315533161163,9.719112396240234,-0.802880585193634
1788681538961105400,6.73410546875,0.08402151614427567,9.69277572631836,-0.7803601026535034
1788681538971180300,6.74418017578125,0.08641571551561356,9.69038200378418,-0.788739800453186
1788681538981255000,6.7542548828125,0.0934486836194992,9.715520858764648,-0.7873930931091309
1788681538991330000,6.764330078125,0.07407061755657196,9.751358985900879,-0.7967454195022583
1788681539001403400,6.7744033203125,0.06419453024864197,9.794304847717285,-0.7928548455238342
1788681539011478500,6.784478515625,0.059480950236320496,9.794230461120605,-0.7904606461524963
1788681539021528800,6.79452880859375,0.044666826725006104,9.787272453308105,-0.7861211895942688
1788681539031627300,6.804627197265625,0.03292027488350868,9.765724182128906,-0.7778910994529724
1788681539041702000,6.814701904296875,0.03149871528148651,9.767146110534668,-0.8184428811073303
1788681539051775700,6.824775634765625,0.029029695317149162,9.773131370544434,-0.8339303731918335
1788681539061849900,6.834849853515625,0.008454524911940098,9.792284965515137,-0.8576479554176331
1788681539071924000,6.844924072265625,0.008379706181585789,9.803133964538574,-0.8718634843826294
1788681539081999400,6.854999267578125,-0.004713584668934345,9.791088104248047,-0.8623615503311157
1788681539092072400,6.865072509765625,-0.00673369225114584,9.75397777557373,-0.8434323668479919
1788681539102121700,6.875121826171875,-0.03082534670829773,9.710882186889648,-0.8234557509422302
1788681539112230100,6.885230224609375,-0.02596212550997734,9.703699111938477,-0.8211363554000854
1788681539122272500,6.8952724609375,-0.01885433867573738,9.704971313476562,-0.8271218538284302
1788681539132345000,6.905344970703125,-0.022595278918743134,9.738340377807617,-0.8173205852508545
1788681539142420000,6.915419921875,-0.04317044839262962,9.765799522399902,-0.8302642703056335
1788681539152497000,6.925496826171875,-0.030151978135108948,9.775450706481934,-0.841038167476654
1788681539162569200,6.9355693359375,-0.03374328091740608,9.768342971801758,-0.8506149649620056
1788681539172643800,6.945643798828125,-0.029029695317149162,9.77672290802002,-0.8529343605041504
1788681539182717700,6.9557177734375,-0.0520738884806633,9.751134872436523,-0.8238298296928406
1788681539192792000,6.9657919921875,-0.02985270321369171,9.78255844116211,-0.8822633028030396
1788681539202878200,6.975878173828125,-0.05117605999112129,9.79647445678711,-0.8212111592292786
1788681539212941000,6.985941162109375,-0.05349544435739517,9.79520320892334,-0.7997381687164307
1788681539223016400,6.996016357421875,-0.04511573910713196,9.805827140808105,-0.7781903743743896
1788681539233089500,7.006089599609375,-0.050876785069704056,9.788992881774902,-0.754397988319397
1788681539243190000,7.01618994140625,-0.03149871528148651,9.761534690856934,-0.7486369609832764
1788681539253264600,7.0262646484375,-0.025662848725914955,9.768866539001465,-0.7725041508674622
1788681539263338800,7.0363388671875,-0.031199440360069275,9.788095474243164,-0.7868693470954895
1788681539273413000,7.0464130859375,-0.03374328091740608,9.79415512084961,-0.7999626398086548
1788681539283487500,7.056487548828125,-0.04571428894996643,9.775226593017578,-0.8394669890403748
1788681539293562000,7.06656201171875,-0.04803367331624031,9.76086139678955,-0.8442553877830505
1788681539303610400,7.0766103515625,-0.05035305395722389,9.737069129943848,-0.8610895872116089
1788681539313711000,7.086711181640625,-0.0504278726875782,9.733551979064941,-0.87665194272995
1788681539323785200,7.09678515625,-0.024166474118828773,9.732579231262207,-0.8898948431015015
1788681539333859800,7.10685986328125,-0.019452888518571854,9.729063034057617,-0.900668740272522
1788681539343944700,7.11694482421875,-0.03179799020290375,9.716119766235352,-0.8999953866004944
1788681539354008000,7.127008056640625,-0.01496376097202301,9.714921951293945,-0.888099193572998
1788681539364082700,7.137082763671875,-0.024615386500954628,9.725621223449707,-0.8844330906867981
1788681539374157600,7.147157470703125,-0.028057051822543144,9.713650703430176,-0.8749310970306396
1788681539384231400,7.1572314453125,-0.018405426293611526,9.702876091003418,-0.869020402431488
1788681539394282500,7.167282470703125,-0.02214636653661728,9.727940559387207,-0.8629601001739502
1788681539404380400,7.17738037109375,-0.020949264988303185,9.741034507751465,-0.8545055389404297
1788681539414455000,7.187455078125,-0.018704701215028763,9.755399703979492,-0.8532336354255676
1788681539424529000,7.19752880859375,-0.0014963760040700436,9.774178504943848,-0.8348281979560852
1788681539434604000,7.20760400390625,-0.0015711948508396745,9.777770042419434,-0.8408136963844299
1788681539444678000,7.217677978515625,0.013991116546094418,9.78255844116211,-0.8348281979560852
1788681539454753300,7.227753173828125,0.02596212550997734,9.767146110534668,-0.8492682576179504
1788681539464827100,7.2378271484375,0.03681085258722305,9.75637149810791,-0.842235267162323
1788681539474901500,7.247901611328125,0.04272153601050377,9.760112762451172,-0.8589198589324951
1788681539484975600,7.2579755859375,0.03531447425484657,9.779341697692871,-0.8815151453018188
1788681539495049500,7.268049560546875,0.02207154780626297,9.780538558959961,-0.8934113383293152
1788681539505124400,7.278124267578125,0.018704701215028763,9.797223091125488,-0.9133879542350769
1788681539515199200,7.28819921875,0.00673369225114584,9.801861763000488,-0.9013420939445496
1788681539525268200,7.298268310546875,0.013991116546094418,9.792359352111816,-0.9050082564353943
1788681539535348200,7.30834814453125,0.027084406465291977,9.795950889587402,-0.9038859605789185
1788681539545421800,7.318421875,0.0330699123442173,9.790040016174316,-0.9026888608932495
1788681539555482600,7.328482666015625,0.034341830760240555,9.788768768310547,-0.8883984684944153
1788681539565551400,7.33855126953125,0.041524436324834824,9.78405475616455,-0.8979752659797668
1788681539575646000,7.34864599609375,0.02835632674396038,9.791162490844727,-0.8919897675514221
1788681539585720000,7.358719970703125,0.012045827694237232,9.787646293640137,-0.8708160519599915
1788681539595794000,7.3687939453125,0.0012719196965917945,9.776947021484375,-0.8898948431015015
1788681539605868500,7.37886865234375,-0.016385318711400032,9.748066902160645,-0.8684966564178467
1788681539615943400,7.388943359375,-0.026261400431394577,9.77096176147461,-0.9029881358146667
1788681539626016800,7.399016845703125,-0.023867197334766388,9.7744779586792,-0.8993968367576599
1788681539636092400,7.409092529296875,-0.01653495617210865,9.764826774597168,-0.8779986500740051
1788681539646166300,7.419166259765625,-0.04279635474085808,9.776647567749023,-0.8610895872116089
1788681539656241200,7.4292412109375,-0.06434416770935059,9.780089378356934,-0.85622638463974
1788681539666315000,7.43931494140625,-0.0934486836194992,9.798046112060547,-0.8538321852684021
1788681539676390100,7.44939013671875,-0.08043020963668823,9.826701164245605,-0.8381950259208679
1788681539686464000,7.459464111328125,-0.06135141849517822,9.837475776672363,-0.8382698893547058
1788681539696537600,7.46953759765625,-0.06703764945268631,9.814580917358398,-0.7965209484100342
1788681539706613200,7.47961328125,-0.056413378566503525,9.834931373596191,-0.8060229420661926
1788681539716687600,7.4896875,-0.0035164838191121817,9.808670043945312,-0.7705588340759277
1788681539726736100,7.499736083984375,0.0578349344432354,9.766921043395996,-0.7423521876335144
1788681539736836600,7.509836669921875,0.0471358448266983,9.751358985900879,-0.7435492873191833
1788681539746909700,7.51990966796875,-0.03329436853528023,9.719860076904297,-0.7609072327613831
1788681539756984300,7.529984375,-0.08469488471746445,9.70310115814209,-0.7870938181877136
1788681539767038000,7.540037841796875,-0.06344634294509888,9.705794334411621,-0.8396914005279541
1788681539777134300,7.55013427734375,0.017806874588131905,9.703774452209473,-0.8507646322250366
1788681539787208400,7.56020849609375,0.06397007405757904,9.757868766784668,-0.8733598589897156
1788681539797282300,7.5702822265625,0.054093994200229645,9.78061294555664,-0.9017910361289978
1788681539807357700,7.580357666015625,0.04563947021961212,9.802085876464844,-0.8969278335571289
1788681539817431800,7.590431884765625,0.08491934090852737,9.818920135498047,-0.8958055377006531
1788681539827505400,7.60050537109375,0.0785597413778305,9.86538314819336,-0.8751555681228638
1788681539837580500,7.61058056640625,0.05342062562704086,9.885509490966797,-0.8618378043174744
1788681539847654100,7.620654052734375,-0.028880057856440544,9.876755714416504,-0.8400655388832092
1788681539857730000,7.63072998046875,-0.03007715940475464,9.864859580993652,-0.8532336354255676
1788681539867803000,7.640802978515625,-0.006958148907870054,9.820566177368164,-0.8213608264923096
1788681539877878500,7.65087841796875,0.09786299616098404,9.736993789672852,-0.7612813115119934
1788681539887943700,7.660943603515625,0.2214636504650116,9.658583641052246,-0.7573907375335693
1788681539898026500,7.671026611328125,0.23605331778526306,9.61915397644043,-0.7445219159126282
1788681539908101600,7.6811015625,0.1826326996088028,9.59019947052002,-0.7537246346473694
1788681539918176300,7.69117626953125,0.13242928683757782,9.620800018310547,-0.7020248174667358
1788681539928249600,7.70124951171875,0.12958616018295288,9.687763214111328,-0.7196072340011597
1788681539938324500,7.711324462890625,0.12038345634937286,9.703848838806152,-0.6072294116020203
1788681539948398300,7.7213984375,0.09322422742843628,9.730709075927734,-0.5079448819160461
1788681539958472700,7.73147265625,-0.011447276920080185,9.700108528137207,-0.43604397773742676
1788681539968548000,7.741548095703125,-0.1356464922428131,9.70078182220459,-0.42122986912727356
1788681539978622500,7.75162255859375,-0.3248632550239563,9.628132820129395,-0.35995325446128845
1788681539988697000,7.761697021484375,-0.5261258482933044,9.586009979248047,-0.36010289192199707
1788681539998770700,7.771770751953125,-0.7049427628517151,9.504232406616211,-0.386139839887619
1788681540008845600,7.781845458984375,-0.695964515209198,9.403900146484375,-0.3842693865299225
1788681540018920200,7.791920166015625,-0.4572925269603729,9.266234397888184,-0.3859153985977173
1788681540028994600,7.80199462890625,-0.30054712295532227,9.055319786071777,-0.37805941700935364
1788681540039069000,7.81206884765625,-0.433200865983963,8.873285293579102,-0.3761141300201416
1788681540049142500,7.822142578125,-0.6518214344978333,8.663568496704102,-0.4014776945114136
1788681540059216600,7.832216552734375,-0.4572176933288574,8.504204750061035,-0.39706337451934814
1788681540069292300,7.842292236328125,-0.4216787815093994,8.417340278625488,-0.4560205936431885
1788681540079341000,7.852341064453125,-0.7706336975097656,8.369904518127441,-0.5384709239006042
1788681540089420000,7.862419921875,-1.0779144763946533,8.376114845275879,-0.5719149112701416
1788681540099515000,7.872514892578125,-1.2868833541870117,8.45130729675293,-0.7092074155807495
1788681540109590000,7.882590087890625,-1.4380173683166504,8.593912124633789,-0.8893710970878601
1788681540119664000,7.8926640625,-1.7521815299987793,8.82779598236084,-1.0672154426574707
1788681540129737700,7.90273779296875,-2.1035306453704834,9.188721656799316,-1.3492822647094727
1788681540139813000,7.912813232421875,-2.0673930644989014,9.582942008972168,-1.7795652151107788
1788681540149887200,7.92288720703125,-1.2740894556045532,9.659855842590332,-2.059986114501953
1788681540159962000,7.932962158203125,-0.38815996050834656,9.350404739379883,-2.1163246631622314
1788681540170036700,7.94303662109375,0.2347813993692398,8.795548439025879,-2.0213048458099365
1788681540180111000,7.953111083984375,0.13100773096084595,8.152780532836914,-1.8415900468826294
1788681540190185200,7.963185302734375,-0.45594578981399536,7.641618251800537,-1.5805472135543823
1788681540200259600,7.973259521484375,-1.1275193691253662,7.391050338745117,-1.4288146495819092
1788681540210334500,7.98333447265625,-1.672798752784729,7.302913665771484,-1.3997101783752441
1788681540220408800,7.993408935546875,-2.4496424198150635,7.421651363372803,-1.7948282957077026
1788681540230482400,8.003482421875,-3.185485363006592,7.689203262329102,-2.456301212310791
1788681540240556800,8.013556884765626,-3.576488494873047,8.096890449523926,-3.245415210723877
1788681540250631200,8.023631103515624,-3.0242507457733154,8.423100471496582,-3.7963061332702637
1788681540260705300,8.033705322265625,-1.370605707168579,8.63094711303711,-4.016497611999512
1788681540270754800,8.0437548828125,-0.2504185438156128,8.382549285888672,-3.706897497177124
1788681540280855000,8.05385498046875,-0.4875941276550293,7.89892053604126,-3.2178070545196533
1788681540290928600,8.0639287109375,-1.3017723560333252,7.079355239868164,-2.3867197036743164
1788681540301003500,8.07400341796875,-2.2392518520355225,6.275202751159668,-1.8667291402816772
1788681540311078700,8.08407861328125,-3.2211740016937256,5.580060958862305,-1.6551415920257568
1788681540321152500,8.094152587890624,-3.417423725128174,5.16549015045166,-1.7807623147964478
1788681540331226600,8.1042265625,-2.667739152908325,5.121721267700195,-2.2578070163726807
1788681540341302000,8.114302001953124,-2.0908114910125732,5.253776550292969,-2.894515037536621
1788681540351376000,8.1243759765625,-1.8478747606277466,5.574150562286377,-3.6734535694122314
1788681540361450200,8.1344501953125,-2.104353666305542,6.014833450317383,-4.522646903991699
1788681540371524600,8.144524658203125,-2.7126305103302,6.3599724769592285,-5.381716728210449
1788681540381599500,8.154599609375,-3.293823003768921,6.349123477935791,-5.762768745422363
1788681540391651600,8.164651611328125,-3.7615153789520264,6.219761848449707,-5.829432010650635
1788681540401747500,8.17474755859375,-3.5223944187164307,6.238391876220703,-6.029647350311279
1788681540411822800,8.18482275390625,-3.3033249378204346,6.336329460144043,-6.3284735679626465
1788681540421872400,8.194872314453125,-3.316567897796631,6.341342449188232,-6.604180812835693
1788681540431971600,8.2049716796875,-3.6712090969085693,6.2451252937316895,-6.953135967254639
1788681540442045400,8.21504541015625,-3.8297500610351562,6.1804070472717285,-7.4817304611206055
1788681540452100600,8.2251005859375,-3.8232407569885254,6.169558525085449,-7.909245491027832
1788681540462168800,8.2351689453125,-3.727921724319458,6.183250427246094,-7.954959392547607
1788681540472268300,8.245268310546875,-4.117353439331055,6.266149520874023,-7.351620674133301
1788681540482340600,8.255340576171875,-4.987945079803467,6.54918909072876,-6.585102081298828
1788681540492408000,8.265407958984374,-5.25295352935791,6.834847450256348,-6.120552062988281
1788681540502466300,8.27546630859375,-4.789750099182129,6.7795562744140625,-5.501800537109375
1788681540512541000,8.285541015625,-4.333505153656006,6.670619964599609,-4.917840003967285
1788681540522615600,8.295615478515625,-3.96217942237854,6.51297664642334,-4.6658501625061035
1788681540532690400,8.3056904296875,-3.9846997261047363,6.18878698348999,-4.822595596313477
1788681540542764300,8.315764404296875,-4.923974990844727,5.9269208908081055,-4.962431907653809
1788681540552838700,8.325838623046875,-5.775113582611084,5.563526153564453,-5.081393718719482
1788681540562913300,8.335913330078125,-6.081871032714844,5.1256866455078125,-5.632883071899414
1788681540572988000,8.34598779296875,-5.636250019073486,4.729221820831299,-6.479607582092285
1788681540583087600,8.356087646484376,-6.2183403968811035,4.095207214355469,-7.157615661621094
1788681540593136600,8.36613671875,-7.354464054107666,3.2817771434783936,-7.500135898590088
1788681540603236600,8.376236572265626,-7.584382057189941,2.5883564949035645,-7.552958011627197
1788681540613311200,8.386311279296875,-6.4782609939575195,2.105026960372925,-7.7842230796813965
1788681540623400200,8.396400146484375,-6.127584934234619,1.7058687210083008,-7.958401203155518
1788681540633460500,8.40646044921875,-6.005855083465576,1.4809633493423462,-8.065990447998047
1788681540643534300,8.416534423828125,-6.226645469665527,1.4012813568115234,-7.60832405090332
1788681540653609200,8.426609130859376,-6.698901653289795,1.2652608156204224,-6.819210052490234
1788681540663683300,8.436683349609375,-6.6131591796875,1.1734580993652344,-5.43147087097168
1788681540673758000,8.446758056640626,-6.635455131530762,1.3493571281433105,-4.823942184448242
1788681540683831800,8.456831787109374,-6.364386558532715,1.4549264907836914,-4.721739768981934
1788681540693906700,8.46690673828125,-6.944082736968994,1.6193782091140747,-5.052962779998779
1788681540703980800,8.476980712890626,-7.614758491516113,1.7669956684112549,-5.186888217926025
1788681540714055400,8.487055419921875,-7.5761518478393555,1.9714754819869995,-5.423689842224121
1788681540724129800,8.4971298828125,-7.537769794464111,1.9398270845413208,-5.967248439788818
1788681540734204400,8.507204345703125,-8.130409240722656,1.600823163986206,-6.187589645385742
1788681540744278500,8.517278564453125,-8.504204750061035,1.1139023303985596,-6.315305709838867
1788681540754352400,8.527352294921876,-8.336759567260742,0.651372492313385,-6.145167350769043
1788681540764427000,8.537427001953125,-8.509591102600098,0.48153382539749146,-5.765761375427246
1788681540774502400,8.54750244140625,-9.053150177001953,0.8198644518852234,-5.525518417358398
1788681540784576500,8.557576416015625,-8.88405990600586,1.3017723560333252,-5.494992256164551
1788681540794624800,8.567624755859375,-8.769436836242676,1.5800235271453857,-5.801300525665283
1788681540804725500,8.5777255859375,-8.957756042480469,1.5718681812286377,-5.972560405731201
1788681540814800000,8.5877998046875,-9.094823837280273,1.5045312643051147,-5.985504150390625
1788681540824873500,8.59787353515625,-9.125873565673828,1.191115379333496,-5.916595935821533
1788681540834948900,8.607948974609375,-9.481337547302246,0.8936358094215393,-5.934702396392822
1788681540845023000,8.61802294921875,-10.132261276245117,0.7748235464096069,-6.047379493713379
1788681540855097600,8.62809765625,-10.906112670898438,0.7300818562507629,-6.030320644378662
1788681540865171700,8.638171630859375,-11.353304862976074,0.583960771560669,-6.043713092803955
1788681540875246000,8.64824609375,-11.354276657104492,0.33533787727355957,-6.2242512702941895
1788681540885320700,8.65832080078125,-11.514688491821289,-0.1404348909854889,-6.713191986083984
1788681540895395600,8.6683955078125,-11.796905517578125,-0.6016179919242859,-6.895974159240723
1788681540905469400,8.678469482421875,-12.255169868469238,-0.881589949131012,-6.904054641723633
1788681540915543600,8.68854345703125,-12.342259407043457,-1.0375123023986816,-6.8424787521362305
1788681540925593000,8.698593017578125,-12.464438438415527,-1.1933598518371582,-6.593257427215576
1788681540935693000,8.708693115234375,-12.445284843444824,-1.3036428689956665,-6.495993137359619
1788681540945767400,8.718767333984376,-12.86367130279541,-1.1366472244262695,-6.298920154571533
1788681540955846000,8.728845947265626,-13.205668449401855,-1.0145429372787476,-6.156914234161377
1788681540965916000,8.738916015625,-13.432743072509766,-1.0497077703475952,-6.221931457519531
1788681540975990800,8.74899072265625,-13.552977561950684,-1.2438626289367676,-6.408754348754883
1788681540986065200,8.759065185546875,-13.616872787475586,-1.3655179738998413,-6.711171627044678
1788681540996138800,8.769138671875,-13.671415328979492,-1.3255647420883179,-7.085639953613281
1788681541006214000,8.7792138671875,-13.730522155761719,-1.2682535648345947,-7.1257429122924805
1788681541016288500,8.78928857421875,-13.488109588623047,-1.0797101259231567,-7.139958381652832
1788681541026383400,8.79938330078125,-13.24936294555664,-0.7748235464096069,-7.0294508934021
1788681541036437200,8.809437255859375,-12.822970390319824,-0.5146785378456116,-6.682366371154785
1788681541046511600,8.81951171875,-12.386701583862305,-0.16564883291721344,-6.425513744354248
1788681541056586200,8.829586181640625,-11.805957794189453,0.21854571998119354,-6.389899730682373
1788681541066660600,8.83966064453125,-11.313799858093262,0.5338321328163147,-6.49404764175415
1788681541076735200,8.8497353515625,-10.920028686523438,0.7410802245140076,-6.563704013824463
1788681541086809600,8.8598095703125,-10.407444953918457,0.9637410044670105,-6.5167927742004395
1788681541096883700,8.8698837890625,-9.993996620178223,1.0695347785949707,-6.357877254486084
1788681541106957800,8.879957763671875,-9.659930229187012,1.1493664979934692,-6.088903903961182
1788681541117032700,8.89003271484375,-9.30573844909668,1.2522423267364502,-5.8972930908203125
1788681541127094800,8.9000947265625,-9.042675018310547,1.26960027217865,-5.839682579040527
1788681541137181400,8.910181396484376,-8.97309398651123,1.1840075254440308,-5.637447357177734
1788681541147255800,8.920255859375,-8.842085838317871,0.9829694628715515,-5.488557815551758
1788681541157329400,8.930329345703125,-8.55844783782959,0.7472901940345764,-5.451447486877441
1788681541167404800,8.94040478515625,-8.322993278503418,0.519092857837677,-5.500154495239258
1788681541177479200,8.950479248046875,-8.224905967712402,0.4339490532875061,-5.595249176025391
1788681541187553500,8.960553466796876,-8.364666938781738,0.5094412565231323,-5.74481201171875
1788681541197627100,8.970627197265625,-8.076539993286133,0.7077859044075012,-5.936498165130615
1788681541207702800,8.980702880859376,-7.578022480010986,0.9551368355751038,-6.055310249328613
1788681541217777000,8.99077685546875,-7.006331920623779,1.199944019317627,-6.10401725769043
1788681541227851300,9.000851318359375,-6.866196155548096,1.3271359205245972,-6.111050128936768
1788681541237926100,9.010926025390624,-7.092597961425781,1.3162124156951904,-6.2463226318359375
1788681541248000300,9.021000244140625,-7.331345081329346,1.1941828727722168,-6.373813629150391
1788681541258084000,9.031083984375,-6.843226909637451,1.1658265590667725,-6.548964500427246
1788681541268149800,9.041149658203125,-6.366257190704346,1.3372365236282349,-6.781501293182373
1788681541278223600,9.0512236328125,-6.16918420791626,1.526602864265442,-7.0376811027526855
1788681541288276700,9.06127685546875,-6.129680156707764,1.690605640411377,-7.303213119506836
1788681541298372000,9.0713720703125,-6.194323539733887,1.8782511949539185,-7.59328556060791
1788681541308447500,9.081447509765624,-6.024784088134766,2.130689859390259,-7.777713775634766
1788681541318521300,9.091521240234375,-5.839083671569824,2.48832368850708,-7.960421562194824
1788681541328571400,9.1015712890625,-5.468356609344482,3.021108388900757,-8.171560287475586
1788681541338670300,9.11167041015625,-5.097031116485596,3.5319712162017822,-8.294486999511719
1788681541348743700,9.12174365234375,-4.838756561279297,4.165387153625488,-8.391303062438965
1788681541358818000,9.131818115234376,-4.800823211669922,4.9053449630737305,-8.531513214111328
1788681541368893400,9.1418935546875,-4.618414878845215,5.7906012535095215,-8.656535148620605
1788681541378968000,9.151968017578126,-4.383035182952881,6.669722080230713,-8.716166496276855
1788681541389042700,9.162042724609375,-3.9233484268188477,7.496619701385498,-8.675464630126953
1788681541399115800,9.17211572265625,-3.31350040435791,8.298078536987305,-8.464699745178223
1788681541409191200,9.182191162109374,-2.9114990234375,8.911218643188477,-8.26007080078125
1788681541419266300,9.192266357421875,-2.666242837905884,9.273566246032715,-7.937975883483887
1788681541429340200,9.202340087890626,-2.335094928741455,9.397541046142578,-7.204302787780762
1788681541439414800,9.212414794921875,-1.9948937892913818,9.39596939086914,-6.342015743255615
1788681541449488400,9.22248828125,-1.856628656387329,9.300276756286621,-5.772345542907715
1788681541459537400,9.232537353515625,-1.8253543376922607,8.984017372131348,-5.118578910827637
1788681541469612300,9.2426123046875,-1.9378818273544312,8.463278770446777,-4.079794406890869
1788681541479686700,9.252686767578124,-2.0923826694488525,7.885377883911133,-2.8715455532073975
1788681541489760500,9.262760498046875,-2.453308582305908,7.292438983917236,-1.9013702869415283
1788681541499860200,9.272860107421875,-2.748394012451172,6.707131385803223,-1.4173674583435059
1788681541509935900,9.282935791015625,-2.7159974575042725,6.207192420959473,-1.0452187061309814
1788681541520010200,9.29301025390625,-2.2619221210479736,5.820379257202148,-1.0782138109207153
1788681541530083600,9.30308349609375,-1.9791070222854614,5.437531471252441,-1.4407109022140503
1788681541540133600,9.313133544921875,-1.858648657798767,5.017124652862549,-1.8337340354919434
1788681541550232800,9.32323291015625,-1.6572364568710327,4.518906116485596,-2.126051187515259
1788681541560307200,9.33330712890625,-1.6038906574249268,4.017620086669922,-2.402282238006592
1788681541570382000,9.343382080078126,-1.550694465637207,3.5295021533966064,-2.4432079792022705
1788681541580456400,9.35345654296875,-1.4396634101867676,3.227308988571167,-2.371232271194458
1788681541590531800,9.36353173828125,-0.866401731967926,3.2178070545196533,-2.4402899742126465
1788681541600605000,9.37360498046875,-0.1916857808828354,3.2736966609954834,-2.385298252105713
1788681541610680600,9.3836806640625,0.6240636110305786,3.60798716545105,-2.2421698570251465
1788681541620777000,9.39377685546875,1.1843816041946411,4.080991744995117,-1.8478747606277466
1788681541630829000,9.4038291015625,1.653944492340088,4.463315486907959,-1.305662989616394
1788681541640903400,9.4139033203125,1.9133412837982178,4.893523693084717,-0.9271546006202698
1788681541650976800,9.423976806640624,1.8378490209579468,5.174543380737305,-0.583960771560669
1788681541661025800,9.43402587890625,1.330727219581604,5.20746374130249,-0.38718730211257935
1788681541671126500,9.44412646484375,0.8221089839935303,5.468730926513672,-0.44719198346138
1788681541681201400,9.454201416015625,0.16175825893878937,5.867888927459717,-0.46417585015296936
1788681541691274500,9.4642744140625,-0.6039373874664307,6.470330238342285,-0.615683913230896
1788681541701349600,9.474349609375,-1.1706898212432861,7.36359167098999,-0.736591100692749
1788681541711425000,9.484425048828125,-1.3479355573654175,8.449361801147461,-0.8556278347969055
1788681541721499000,9.494498779296874,-1.0243442058563232,9.654318809509277,-1.018957257270813
1788681541731572500,9.504572509765625,-0.42953476309776306,10.759318351745605,-1.072826862335205
1788681541741648000,9.51464794921875,0.28700491786003113,11.747300148010254,-1.0489596128463745
1788681541751721500,9.524721435546875,1.043423056602478,12.559309005737305,-0.9293991923332214
1788681541761770800,9.534770751953126,1.7408090829849243,13.18741226196289,-0.8263736963272095
1788681541771845000,9.54484521484375,2.1775264739990234,13.588441848754883,-0.9166799783706665
1788681541781945900,9.55494580078125,2.129343032836914,13.75857925415039,-1.2845640182495117
1788681541791993600,9.56499365234375,1.4970494508743286,13.42204475402832,-1.5584756135940552
1788681541802075000,9.575074951171874,0.4687398076057434,12.385429382324219,-1.6255881786346436
1788681541812142600,9.585142578125,-0.40394672751426697,11.22326946258545,-1.8026094436645508
1788681541822217200,9.59521728515625,-1.0574889183044434,10.277559280395508,-2.095150947570801
1788681541832340700,9.6053408203125,-1.2749872207641602,9.399710655212402,-2.039186477661133
1788681541842409500,9.615409423828124,-0.943913996219635,8.544755935668945,-1.9072809219360352
1788681541852440300,9.6254404296875,-0.3646668493747711,7.866972923278809,-1.8784009218215942
1788681541862519600,9.63551953125,0.06486789882183075,7.386037349700928,-1.896881103515625
1788681541872589800,9.64558984375,0.2323123812675476,7.15275239944458,-1.9393033981323242
1788681541882669600,9.655669677734375,0.24420857429504395,7.1362175941467285,-1.96451735496521
1788681541892738600,9.665738525390625,0.29897594451904297,7.359701156616211,-1.950451374053955
1788681541902813200,9.675813232421875,0.3454384207725525,7.755268096923828,-1.9473837614059448
1788681541912887800,9.6858876953125,0.3090764880180359,8.21495532989502,-1.938854455947876
1788681541922961700,9.695961669921875,0.19407998025417328,8.596455574035645,-1.848248839378357
1788681541933036300,9.706036376953126,0.04272153601050377,8.799663543701172,-1.7511340379714966
1788681541943136500,9.716136474609375,-0.17230769991874695,8.80235767364502,-1.7383400201797485
1788681541953211100,9.726211181640625,-0.4510825574398041,8.63199520111084,-1.7930326461791992
1788681541963285000,9.736284912109374,-1.0144681930541992,8.282890319824219,-1.8989760875701904
1788681541973359900,9.74635986328125,-2.5369560718536377,7.886051654815674,-1.9966145753860474
1788681541983434200,9.756434326171876,-4.977246284484863,7.775768756866455,-2.255263090133667
1788681541993482800,9.766482666015625,-4.7438859939575195,7.820285797119141,-2.3813328742980957
1788681542003583000,9.7765830078125,-1.1157728433609009,7.514202117919922,-1.884311556816101
1788681542013648100,9.786648193359374,0.7254431247711182,6.997278690338135,-1.5729905366897583
1788681542023711500,9.79671142578125,0.9183259606361389,6.7410993576049805,-1.5655086040496826
1788681542033806600,9.806806640625,1.204882025718689,6.783821105957031,-1.5412673950195312
1788681542043881000,9.816880859375,1.1914145946502686,6.900313854217529,-1.439139723777771
1788681542053955600,9.82695556640625,0.45646950602531433,6.94887113571167,-1.4110077619552612
1788681542064030000,9.837030029296875,-0.3479074239730835,6.940267086029053,-1.4700398445129395
1788681542074104300,9.847104248046875,-0.8719383478164673,6.882282257080078,-1.7106571197509766
1788681542084178400,9.857178466796874,-1.5840636491775513,6.778808116912842,-2.0797383785247803
1788681542094253000,9.867253173828125,-2.490194320678711,6.528090000152588,-2.270975112915039
1788681542104327400,9.877327392578126,-2.7952303886413574,6.136937618255615,-2.381632089614868
1788681542114402300,9.88740234375,-2.488248825073242,5.970914363861084,-2.622473955154419
1788681542124476200,9.89747607421875,-1.805452585220337,6.036006927490234,-2.942399024963379
1788681542134551300,9.90755126953125,-0.5844096541404724,6.018199920654297,-3.2540194988250732
1788681542144625400,9.91762548828125,-0.19191023707389832,5.837662220001221,-3.6373162269592285
1788681542154685700,9.927685791015625,-0.17485153675079346,6.047977924346924,-4.314426422119141
1788681542164774100,9.937774169921875,-0.22879590094089508,6.967576026916504,-5.355006217956543
1788681542174848800,9.947848876953126,-0.9235633015632629,8.227898597717285,-6.314033508300781
1788681542184923000,9.9579228515625,-2.275015354156494,9.131560325622559,-7.14467191696167
1788681542194971600,9.9679716796875,-3.843217372894287,9.132757186889648,-7.545700550079346
1788681542205071600,9.978071533203124,-4.240280628204346,8.37529182434082,-7.117138862609863
1788681542215146500,9.988146484375,-2.735525131225586,7.444321155548096,-5.981613636016846
1788681542225219800,9.9982197265625,-1.6207249164581299,6.736834526062012,-5.145513534545898
1788681542235295500,10.00829541015625,-1.8494459390640259,6.344709396362305,-5.027225017547607
1788681542245369300,10.018369384765625,-3.650409460067749,6.257994174957275,-5.486088752746582
1788681542255444500,10.028444580078125,-5.844021797180176,5.971288681030273,-5.867140769958496
1788681542265518300,10.038518310546875,-6.134318828582764,5.81379508972168,-6.3384246826171875
1788681542275592700,10.0485927734375,-4.516287326812744,5.747355937957764,-6.660220146179199
1788681542285667600,10.05866748046875,-2.7351510524749756,5.589039325714111,-6.438681602478027
1788681542295742200,10.0687421875,-1.4197616577148438,5.350292682647705,-6.016329765319824
1788681542305816800,10.07881689453125,-1.7714848518371582,5.042038917541504,-6.015431880950928
1788681542315891200,10.08889111328125,-3.792639970779419,4.651036262512207,-6.2078657150268555
1788681542325964300,10.09896435546875,-4.920982360839844,4.521749019622803,-6.517914772033691
1788681542336040000,10.1090400390625,-4.385204792022705,4.733486175537109,-6.886621952056885
1788681542346114300,10.1191142578125,-4.79124641418457,5.071592330932617,-7.409829616546631
1788681542356162800,10.129162841796875,-5.292906761169434,5.402366638183594,-7.9613189697265625
1788681542366263300,10.13926318359375,-5.160701751708984,5.512799263000488,-8.424522399902344
1788681542376337000,10.1493369140625,-5.13040018081665,5.33353328704834,-8.845827102661133
1788681542386412300,10.159412353515625,-5.4269819259643555,4.707299709320068,-8.999579429626465
1788681542396485600,10.169485595703126,-5.608118057250977,3.80416202545166,-8.875829696655273
1788681542406561000,10.17956103515625,-5.31617546081543,3.0196869373321533,-8.756793022155762
1788681542416635600,10.1896357421875,-5.23798942565918,2.5602245330810547,-8.780959129333496
1788681542426709000,10.199708984375,-5.575646877288818,2.2118682861328125,-8.644190788269043
1788681542436784400,10.209784423828125,-5.4747161865234375,1.9396774768829346,-8.376114845275879
1788681542446859000,10.21985888671875,-5.497984886169434,1.6989853382110596,-8.056114196777344
1788681542456933400,10.229933349609375,-5.645751953125,1.5520412921905518,-7.922637939453125
1788681542467007700,10.2400078125,-5.537115097045898,1.5083470344543457,-7.483900547027588
1788681542477081300,10.250081298828125,-5.859659194946289,1.5386487245559692,-6.8890910148620605
1788681542487131400,10.26013134765625,-6.057031154632568,1.5778536796569824,-6.474295616149902
1788681542497230600,10.270230712890625,-6.393491268157959,1.376516342163086,-6.125415325164795
1788681542507305200,10.28030517578125,-6.420875072479248,1.1023802757263184,-6.49329948425293
1788681542517380000,10.290380126953124,-6.429179668426514,0.8583961129188538,-7.3576812744140625
1788681542527428400,10.300428466796875,-6.455815315246582,0.6859387755393982,-8.200215339660645
1788681542537528800,10.31052880859375,-7.096563339233398,0.5466261506080627,-8.726191520690918
1788681542547603700,10.320603759765625,-8.374019622802734,0.4009539783000946,-8.719682693481445
1788681542557676500,10.330676513671875,-8.873884201049805,0.19198505580425262,-8.844181060791016
1788681542567752400,10.34075244140625,-8.518195152282715,-0.2587234079837799,-8.99351978302002
1788681542577825800,10.35082568359375,-8.133626937866211,-0.8860790729522705,-9.135525703430176
1788681542587901000,10.36090087890625,-7.6764092445373535,-1.3990367650985718,-9.169867515563965
1788681542597974800,10.370974853515625,-7.83345365524292,-1.2865841388702393,-8.861838340759277
1788681542608049700,10.381049560546876,-8.583288192749023,-0.7893383502960205,-8.301146507263184
1788681542618124500,10.39112451171875,-8.587851524353027,-0.306682288646698,-8.098012924194336
1788681542628198000,10.401197998046875,-7.922338485717773,-0.1347486674785614,-7.8430304527282715
1788681542638273300,10.411273193359374,-8.083498001098633,-0.20896892249584198,-7.927576065063477
1788681542648347600,10.42134765625,-8.993070602416992,-0.4010287821292877,-8.427290916442871
1788681542658398200,10.431398193359374,-9.496227264404297,-0.5590460896492004,-8.94069766998291
1788681542668496100,10.44149609375,-9.450363159179688,-0.8653542995452881,-9.269600868225098
1788681542678570800,10.45157080078125,-9.288679122924805,-1.33858323097229,-9.340753555297852
1788681542688619000,10.461618896484374,-9.40487289428711,-1.4076409339904785,-9.238027572631836
1788681542698720300,10.47172021484375,-9.799392700195312,-1.2153565883636475,-9.283217430114746
1788681542708794400,10.48179443359375,-9.985990524291992,-1.065045714378357,-9.368885040283203
1788681542718869200,10.491869140625,-9.85730266571045,-1.1805659532546997,-9.35205078125
1788681542728942600,10.501942626953126,-9.930774688720703,-1.5759084224700928,-9.366266250610352
1788681542739017700,10.512017822265625,-10.40924072265625,-1.9404256343841553,-9.208698272705078
1788681542749092000,10.522092041015625,-10.846033096313477,-2.2737433910369873,-9.043947219848633
1788681542759165700,10.532165771484374,-10.780416488647461,-2.495431423187256,-8.865130424499512
1788681542769241900,10.542241943359375,-10.830395698547363,-2.4840590953826904,-8.794426918029785
1788681542779315000,10.55231494140625,-10.98153018951416,-2.3342719078063965,-8.978106498718262
1788681542789390000,10.56239013671875,-10.915913581848145,-2.086771249771118,-9.439140319824219
1788681542799464200,10.572464111328125,-10.85942554473877,-1.828122615814209,-9.517999649047852
1788681542809539300,10.582539306640625,-10.660332679748535,-1.6629974842071533,-9.397615432739258
1788681542819613400,10.592613525390625,-10.429591178894043,-1.3361141681671143,-9.152060508728027
1788681542829686800,10.602686767578126,-9.89553451538086,-0.9010428190231323,-9.06946086883545
1788681542839762200,10.61276220703125,-9.726967811584473,-0.6572831869125366,-8.96501350402832
1788681542849836500,10.62283642578125,-9.352350234985352,-0.3100491166114807,-8.859519004821777
1788681542859885000,10.632885009765625,-9.156699180603027,-0.03628711774945259,-8.531737327575684
1788681542869985800,10.64298583984375,-9.008708000183105,0.22527942061424255,-8.20261001586914
1788681542880059600,10.6530595703125,-8.722600936889648,0.5270984768867493,-7.919196128845215
1788681542890134000,10.663134033203125,-8.445920944213867,0.7678653597831726,-7.673940181732178
1788681542900208400,10.67320849609375,-8.229918479919434,0.9420435428619385,-7.474473476409912
1788681542910283500,10.683283447265625,-7.923386096954346,0.9613468050956726,-7.305981159210205
1788681542920358000,10.69335791015625,-7.797316551208496,0.9729437232017517,-7.147664546966553
1788681542930431500,10.703431396484374,-7.794997215270996,0.864980161190033,-7.0610246658325195
1788681542940507000,10.7135068359375,-7.797840118408203,0.7562684416770935,-7.055637359619141
1788681542950580700,10.723580810546874,-7.842357158660889,0.7529016137123108,-7.127089500427246
1788681542960654800,10.73365478515625,-7.889642715454102,0.7606079578399658,-7.264232635498047
1788681542970730200,10.743730224609376,-7.483077526092529,0.9005191326141357,-7.475146770477295
1788681542980804600,10.7538046875,-7.199065208435059,1.0372878313064575,-7.615207195281982
1788681542990879000,10.76387890625,-6.925677299499512,1.1490671634674072,-7.782801628112793
1788681543000950300,10.7739501953125,-6.709301471710205,1.2163293361663818,-7.926528453826904
1788681543011028500,10.784028564453125,-6.730175971984863,1.3034183979034424,-7.9212164878845215
1788681543021076200,10.794076171875,-6.491578578948975,1.3734487295150757,-7.899144649505615
1788681543031176200,10.80417626953125,-6.227019309997559,1.3667150735855103,-7.793874740600586
1788681543041251000,10.8142509765625,-6.318747043609619,1.2995277643203735,-7.574206829071045
1788681543051325700,10.82432568359375,-5.753416538238525,1.501164436340332,-7.7929768562316895
1788681543061399300,10.8343994140625,-5.622932434082031,1.7208324670791626,-7.680075168609619
1788681543071474200,10.84447412109375,-5.148282051086426,1.9500772953033447,-7.554155349731445
1788681543081549300,10.85454931640625,-4.493691921234131,2.317063570022583,-7.5953803062438965
1788681543091623200,10.864623046875,-4.194491863250732,2.8446857929229736,-7.780033111572266
1788681543101697800,10.87469775390625,-4.120645523071289,3.405602216720581,-8.087838172912598
1788681543111772700,10.884772705078126,-4.131269931793213,3.9944262504577637,-8.531213760375977
1788681543121847300,10.894847412109375,-4.275595188140869,4.66794490814209,-8.831611633300781
1788681543131920600,10.904920654296875,-4.296694278717041,5.3202900886535645,-8.891167640686035
1788681543141995500,10.91499560546875,-3.9689130783081055,5.907243728637695,-8.753275871276855
1788681543152070100,10.925070068359375,-3.5785086154937744,6.412121295928955,-8.625560760498047
1788681543162118700,10.93511865234375,-3.2895584106445312,6.935628414154053,-8.717063903808594
1788681543172231000,10.94523095703125,-3.036895275115967,7.375188827514648,-8.75993537902832
1788681543182270000,10.95527001953125,-2.676492929458618,7.676708698272705,-8.155623435974121
1788681543192380200,10.965380126953125,-2.6722283363342285,7.990423679351807,-7.834052562713623
1788681543202416400,10.97541650390625,-2.8197710514068604,8.087313652038574,-7.289745807647705
1788681543212491300,10.9854912109375,-2.79665207862854,8.205902099609375,-6.860734462738037
1788681543222565600,10.995565673828125,-2.643423080444336,8.12629508972168,-6.385335922241211
1788681543232640300,11.00564013671875,-2.293794870376587,7.754744529724121,-5.445387363433838
1788681543242716200,11.015716064453125,-1.8207155466079712,7.533056259155273,-4.987496376037598
1788681543252789000,11.0257890625,-1.8688240051269531,7.190834999084473,-4.231003284454346
1788681543262868500,11.035868408203125,-2.575188398361206,6.819060325622559,-3.7538089752197266
1788681543272938200,11.045938232421875,-2.986617088317871,6.523451328277588,-3.477952003479004
1788681543283016200,11.05601611328125,-2.7400143146514893,6.208015441894531,-3.294346809387207
1788681543293127400,11.06612744140625,-2.116623878479004,5.959317684173584,-3.0945804119110107
1788681543303187000,11.07618701171875,-1.5898247957229614,5.848511219024658,-3.007641077041626
1788681543313261600,11.086261474609374,-1.5875802040100098,5.637522220611572,-3.086350440979004
1788681543323336000,11.0963359375,-1.7423802614212036,5.427655220031738,-3.263596296310425
1788681543333410800,11.106410888671874,-1.521515130996704,5.400196552276611,-3.344550132751465
1788681543343485000,11.11648486328125,-1.3152397871017456,5.470152378082275,-3.3330280780792236
1788681543353559800,11.126559814453126,-1.4212579727172852,5.342361927032471,-3.1804726123809814
1788681543363634000,11.136634033203125,-1.5551836490631104,5.1554646492004395,-2.948160171508789
1788681543373708500,11.14670849609375,-1.3643957376480103,5.11536169052124,-2.663848638534546
1788681543383782700,11.15678271484375,-0.803928017616272,5.1396026611328125,-2.3470659255981445
1788681543393831200,11.1668310546875,-0.3876362144947052,5.153594017028809,-2.2137386798858643
1788681543403931400,11.176931396484376,0.07743746042251587,5.197587490081787,-2.088716506958008
1788681543414006800,11.1870068359375,0.6858639717102051,5.515267848968506,-2.109665870666504
1788681543424080100,11.197080078125,0.9962871670722961,5.527164459228516,-1.8720412254333496
1788681543434155300,11.2071552734375,1.2452093362808228,5.4513726234436035,-1.3755437135696411
1788681543444229400,11.2172294921875,1.2054805755615234,5.3966803550720215,-0.9983820915222168
1788681543454304300,11.22730419921875,0.9727940559387207,5.36705207824707,-1.000925898551941
1788681543464378400,11.23737841796875,0.5910685658454895,5.2427778244018555,-1.043123722076416
1788681543474426600,11.247426513671876,0.21293431520462036,4.982034683227539,-1.0024223327636719
1788681543484527400,11.25752734375,-0.0016460136976093054,4.928314685821533,-0.7105541825294495
1788681543494602200,11.267602294921875,-0.22296003997325897,4.954800605773926,-0.2164507955312729
1788681543504675800,11.27767578125,-0.11843816190958023,5.2427778244018555,0.05925649031996727
1788681543514751000,11.2877509765625,0.08693944662809372,6.440252780914307,-0.35920506715774536
1788681543524825000,11.2978251953125,0.03067570924758911,8.03696060180664,-1.0048913955688477
1788681543534900000,11.30789990234375,-0.16347908973693848,9.451260566711426,-1.320776343345642
1788681543544974000,11.31797412109375,0.013018472120165825,10.728193283081055,-1.4127286672592163
1788681543555072300,11.328072265625,0.83580082654953,11.86147403717041,-1.469665765762329
1788681543565123000,11.338123046875,1.7906384468078613,12.747852325439453,-1.4854525327682495
1788681543575198200,11.3481982421875,2.5784056186676025,13.46139907836914,-1.7044471502304077
1788681543585272000,11.35827197265625,2.9139678478240967,13.944952964782715,-2.1103391647338867
1788681543595324700,11.36832470703125,2.62359619140625,13.977424621582031,-2.5854384899139404
1788681543605420000,11.378419921875,1.3578864336013794,13.419276237487793,-2.9536218643188477
1788681543615496000,11.388495849609376,-0.16250644624233246,12.332756996154785,-3.4320132732391357
1788681543625569500,11.398569580078124,-0.9831938743591309,10.930204391479492,-3.2940473556518555
1788681543635644400,11.40864453125,-0.9948655962944031,9.586084365844727,-2.7840824127197266
1788681543645718500,11.418718505859376,-0.6154595017433167,8.521862030029297,-2.321851968765259
1788681543655792600,11.428792724609375,-0.11424831300973892,7.773972988128662,-1.9455881118774414
1788681543665867800,11.43886767578125,0.4124760627746582,7.340173721313477,-1.5511434078216553
1788681543675943000,11.44894287109375,0.8882488012313843,7.216797351837158,-1.1536310911178589
1788681543686016500,11.4590166015625,1.3587843179702759,7.431003570556641,-0.9035866856575012
1788681543696091600,11.469091552734374,1.5688754320144653,8.091054916381836,-1.0755951404571533
1788681543706164700,11.479164794921875,1.3835493326187134,8.966659545898438,-1.4249241352081299
1788681543716240600,11.48924072265625,0.9344120025634766,9.737667083740234,-1.6161609888076782
1788681543726308000,11.49930810546875,0.3957914710044861,10.269554138183594,-1.5910218954086304
1788681543736389400,11.509389404296876,-0.08252514153718948,10.582595825195312,-1.4956278800964355
1788681543746463200,11.519463134765624,-0.472555547952652,10.74068832397461,-1.3786860704421997
1788681543756511700,11.52951171875,-0.7378630638122559,10.803760528564453,-1.2985551357269287
1788681543766586600,11.539586669921874,-0.8790461421012878,10.771438598632812,-1.379359483718872
1788681543776688000,11.549688232421875,-0.732700526714325,10.674997329711914,-1.574935793876648
1788681543786761500,11.559761474609376,-0.1925836056470871,10.472911834716797,-1.8502689599990845
1788681543796835000,11.5698349609375,0.6141875386238098,10.181267738342285,-1.9396774768829346
1788681543806910200,11.57991015625,1.1980735063552856,9.82999324798584,-1.746794581413269
1788681543816985000,11.589985107421874,1.4252982139587402,9.49113941192627,-1.652672529220581
1788681543827058400,11.600058349609375,1.389310359954834,9.358410835266113,-1.8789246082305908
1788681543837133800,11.6101337890625,1.1976245641708374,9.390433311462402,-2.2015433311462402
1788681543847208200,11.620208251953125,0.817919135093689,9.398438453674316,-2.395847797393799
1788681543857282000,11.630281982421875,0.3156605362892151,9.336114883422852,-2.4553287029266357
1788681543867357400,11.640357421875,-0.18652327358722687,9.230171203613281,-2.4240543842315674
1788681543877431600,11.650431640625,-0.554781436920166,9.118691444396973,-2.3754971027374268
1788681543887479800,11.660479736328124,-0.662894606590271,9.051204681396484,-2.3324012756347656
1788681543897580800,11.670580810546875,-0.5131073594093323,8.997859001159668,-2.315342664718628
1788681543907654100,11.680654052734376,-0.2976292073726654,8.92461109161377,-2.3249194622039795
1788681543917729800,11.690729736328125,-0.2166004329919815,8.805274963378906,-2.2864625453948975
1788681543927794400,11.70079443359375,-0.22610242664813995,8.644938468933105,-2.239476442337036
1788681543937878800,11.710878662109375,-0.20028993487358093,8.480936050415039,-2.1378724575042725
1788681543947953200,11.720953125,-0.24907179176807404,8.307206153869629,-2.0789153575897217
1788681543958026800,11.73102685546875,-0.5770774483680725,8.172607421875,-2.1523873805999756
1788681543968101600,11.7411015625,-1.2040590047836304,8.022970199584961,-2.300004720687866
1788681543978176300,11.75117626953125,-1.7496377229690552,7.822455406188965,-2.4851813316345215
1788681543988224800,11.761224853515625,-1.3577368259429932,7.52235746383667,-2.3867945671081543
1788681543998324700,11.77132470703125,-0.4843021035194397,7.146766662597656,-2.130614995956421
1788681544008399000,11.781399169921874,0.05761047825217247,6.7265095710754395,-1.7993922233581543
1788681544018474200,11.79147412109375,0.15427637100219727,6.304082870483398,-1.5965584516525269
1788681544028548600,11.801548583984374,0.02528875507414341,6.073266506195068,-1.6366612911224365
1788681544038623500,11.81162353515625,-0.12629413604736328,6.139182090759277,-1.7778444290161133
1788681544048697300,11.821697265625,-0.30555999279022217,6.551733016967773,-1.989880919456482
1788681544058770700,11.831770751953124,-0.34768298268318176,7.17512321472168,-2.210895538330078
1788681544068846300,11.841846435546875,-0.20635025203227997,7.786617279052734,-2.322899341583252
1788681544078920700,11.851920654296874,-0.30555999279022217,8.38344669342041,-2.5319430828094482
1788681544088972000,11.861971923828126,-0.5960065722465515,8.928576469421387,-2.824110507965088
1788681544099070200,11.8720703125,-0.9054571390151978,9.204283714294434,-3.1810710430145264
1788681544109144300,11.882144287109375,-1.628580927848816,9.244985580444336,-3.706972360610962
1788681544119218700,11.89221875,-2.1849334239959717,8.982970237731934,-4.242300987243652
1788681544129292300,11.902292236328124,-1.3339444398880005,8.264110565185547,-4.15259313583374
1788681544139368200,11.9123681640625,-0.20762218534946442,7.086163520812988,-3.5625722408294678
1788681544149441800,11.92244189453125,0.22004209458827972,6.294879913330078,-3.397596597671509
1788681544159516000,11.932515869140625,-0.2313397377729416,6.116436958312988,-3.8504748344421387
1788681544169591300,11.94259130859375,-1.646238088607788,6.446836948394775,-4.747103214263916
1788681544179666000,11.952666015625,-2.8914475440979004,7.062446117401123,-5.703736782073975
1788681544189740300,11.962740234375,-3.62070631980896,7.428609371185303,-6.321066379547119
1788681544199814000,11.97281396484375,-3.093981981277466,7.3715972900390625,-6.703016757965088
1788681544209889000,11.982888916015625,-2.1984755992889404,7.007529258728027,-6.581809997558594
1788681544219963600,11.992963623046874,-1.3629741668701172,6.534000873565674,-6.137386322021484
1788681544230037200,12.003037353515625,-0.7521534562110901,6.120103359222412,-5.610587120056152
1788681544240112600,12.013112548828126,-0.9218424558639526,5.873575210571289,-5.186214923858643
1788681544250187000,12.02318701171875,-1.7218050956726074,5.70388650894165,-5.0347819328308105
1788681544260235500,12.033235595703125,-1.931522250175476,5.659368991851807,-5.17588996887207
1788681544270336500,12.04333642578125,-1.2775310277938843,5.977199554443359,-5.414337635040283
1788681544280409600,12.05340966796875,-1.1964274644851685,6.454692840576172,-5.2999396324157715
1788681544290484000,12.06348388671875,-2.086771249771118,6.943035125732422,-5.426532745361328
1788681544300559000,12.07355908203125,-3.68662166595459,7.302015781402588,-5.9676971435546875
1788681544310634000,12.083634033203126,-4.882525444030762,7.600543022155762,-6.550161838531494
1788681544320708400,12.093708251953124,-4.464437961578369,7.714043140411377,-6.943933010101318
1788681544330781700,12.10378173828125,-2.8912229537963867,7.4911580085754395,-7.088482856750488
1788681544340857300,12.113857421875,-1.7012299299240112,7.004985332489014,-7.175497531890869
1788681544350931500,12.123931396484375,-1.7144728899002075,6.4485578536987305,-7.462427616119385
1788681544361005300,12.13400537109375,-2.5166053771972656,5.80646276473999,-7.672817707061768
1788681544371080700,12.144080810546875,-3.1512184143066406,5.396156311035156,-7.77524471282959
1788681544381154600,12.154154541015625,-3.679439067840576,5.200729846954346,-7.550938129425049
1788681544391230200,12.164230224609375,-4.547112941741943,5.297470569610596,-7.462352752685547
1788681544401303600,12.174303466796875,-4.563797473907471,5.547739505767822,-7.359476566314697
1788681544411378200,12.184378173828126,-3.645097255706787,5.896395206451416,-7.147515296936035
1788681544421451800,12.19445166015625,-3.2988357543945312,6.15878438949585,-6.797886848449707
1788681544431527000,12.20452685546875,-3.5113213062286377,6.115090370178223,-6.819958209991455
1788681544441601300,12.214601318359374,-3.800645589828491,5.9269208908081055,-7.129109859466553
1788681544451676400,12.224676513671875,-4.145185947418213,5.521478176116943,-7.2707414627075195
1788681544461725400,12.234725341796874,-4.92539644241333,4.827982425689697,-7.460033416748047
1788681544471825400,12.244825439453125,-5.2177886962890625,4.070591926574707,-7.41985559463501
1788681544481899000,12.25489892578125,-5.348048210144043,3.4909706115722656,-7.459359645843506
1788681544491973000,12.26497314453125,-4.758251190185547,3.0853776931762695,-7.615356922149658
1788681544502048500,12.275048583984375,-4.575319290161133,2.7578210830688477,-7.913734436035156
1788681544512102000,12.285101806640625,-4.973505020141602,2.536207675933838,-8.289400100708008
1788681544522171400,12.29517138671875,-5.250559329986572,2.3971195220947266,-7.930942535400391
1788681544532266000,12.305265869140625,-5.336675643920898,2.4521114826202393,-7.09454345703125
1788681544542341000,12.315341064453126,-5.949516296386719,2.578629970550537,-6.358476161956787
1788681544552404500,12.325404541015626,-5.939116477966309,2.757147789001465,-6.451849937438965
1788681544562469000,12.33546923828125,-5.31812047958374,2.9262382984161377,-7.0575079917907715
1788681544572544300,12.345544189453125,-5.308169841766357,2.9905824661254883,-7.9299702644348145
1788681544582620200,12.3556201171875,-5.69700288772583,2.791339874267578,-8.660575866699219
1788681544592693500,12.365693603515625,-5.674557209014893,2.527528762817383,-9.354519844055176
1788681544602767600,12.375767578125,-5.9065704345703125,1.9859155416488647,-9.645415306091309
1788681544612844800,12.3858447265625,-6.307673931121826,1.2312182188034058,-9.06631851196289
1788681544622916600,12.39591650390625,-6.7900309562683105,0.7896376252174377,-8.562936782836914
1788681544632991500,12.405991455078125,-6.7113213539123535,0.6970868110656738,-7.946430206298828
1788681544643086300,12.41608642578125,-6.702342987060547,0.8240543007850647,-7.096937656402588
1788681544653164500,12.42616455078125,-6.514772415161133,1.0652700662612915,-6.497040271759033
1788681544663213600,12.436213623046875,-6.053140640258789,1.3171850442886353,-6.202179431915283
1788681544673289200,12.446289306640624,-6.032266139984131,1.440261960029602,-6.426112174987793
1788681544683363300,12.45636328125,-6.475268363952637,1.2845640182495117,-7.110479831695557
1788681544693449200,12.46644921875,-7.139883518218994,0.9673323035240173,-7.88926887512207
1788681544703538400,12.476538330078125,-7.640047073364258,0.6472574472427368,-8.247126579284668
1788681544713612800,12.48661279296875,-7.985485553741455,0.32112228870391846,-8.482731819152832
1788681544723687200,12.496687255859374,-8.011747360229492,0.11956045031547546,-9.024494171142578
1788681544733761800,12.50676171875,-8.162282943725586,0.08117840439081192,-9.328632354736328
1788681544743836000,12.5168359375,-8.337657928466797,0.22460605204105377,-9.2079496383667
1788681544753911000,12.5269111328125,-8.349030494689941,0.4292354881763458,-9.058761596679688
1788681544763985000,12.53698486328125,-8.074220657348633,0.5107879638671875,-8.938826560974121
1788681544774060000,12.54706005859375,-8.229320526123047,0.31536126136779785,-8.907029151916504
1788681544784134100,12.557134033203125,-8.652719497680664,0.020051438361406326,-9.14809513092041
1788681544794223900,12.567223876953125,-9.382427215576172,-0.16430209577083588,-9.348011016845703
1788681544804283600,12.57728369140625,-9.721282005310059,-0.06853402405977249,-9.631574630737305
1788681544814357500,12.587357421875,-9.668160438537598,0.04646247625350952,-9.875932693481445
1788681544824431000,12.59743115234375,-10.051980972290039,-0.0504278726875782,-10.113780975341797
1788681544834506500,12.607506591796875,-10.618583679199219,-0.3025672435760498,-10.259753227233887
1788681544844580900,12.617580810546874,-10.481291770935059,-0.4539256691932678,-10.23962688446045
1788681544854655500,12.627655517578125,-10.364574432373047,-0.5042039155960083,-10.130465507507324
1788681544864729900,12.637729736328126,-10.591723442077637,-0.41711482405662537,-10.045546531677246
1788681544874804500,12.647804443359375,-10.623671531677246,-0.4626794755458832,-10.033724784851074
1788681544884878800,12.65787890625,-10.548254013061523,-0.4957493841648102,-10.054524421691895
1788681544894952700,12.66795263671875,-10.313023567199707,-0.35576340556144714,-10.153809547424316
1788681544905027600,12.678027587890625,-10.092533111572266,-0.10699088871479034,-10.276437759399414
1788681544915102200,12.688102294921874,-10.01524543762207,-0.006658873520791531,-10.216507911682129
1788681544925155600,12.698155517578124,-9.706018447875977,0.11088146269321442,-10.102483749389648
1788681544935225000,12.70822509765625,-9.367538452148438,0.30630818009376526,-9.997662544250488
1788681544945325600,12.71832568359375,-9.031003952026367,0.5522375702857971,-9.742156028747559
1788681544955381800,12.7283818359375,-8.577451705932617,0.7856722474098206,-9.524209022521973
1788681544965474600,12.738474609375,-8.096741676330566,1.0136451721191406,-9.378013610839844
1788681544975549000,12.748548828125,-7.925480842590332,1.2141594886779785,-8.996811866760254
1788681544985623300,12.758623291015626,-7.665410995483398,1.3979893922805786,-8.662895202636719
1788681544995697400,12.768697509765625,-7.544877529144287,1.628580927848816,-8.36369514465332
1788681545005772300,12.778772216796876,-7.225176811218262,1.7510592937469482,-8.032397270202637
1788681545015847200,12.78884716796875,-7.068057537078857,1.7829320430755615,-7.858518123626709
1788681545025921000,12.798921142578125,-6.950292587280273,1.8314146995544434,-7.910068511962891
1788681545035996200,12.80899609375,-6.901660442352295,1.6965911388397217,-7.904980659484863
1788681545046070500,12.819070556640625,-6.9006876945495605,1.6613515615463257,-8.01616096496582
1788681545056145000,12.829144775390626,-6.896198749542236,1.575160264968872,-8.19692325592041
1788681545066219500,12.839219482421875,-6.745364189147949,1.4792425632476807,-8.3945951461792
1788681545076294100,12.849294189453126,-6.697330474853516,1.3367875814437866,-8.53877067565918
1788681545086368300,12.8593681640625,-6.294730186462402,1.1662755012512207,-8.53645133972168
1788681545096443000,12.86944287109375,-6.041094779968262,0.9911994934082031,-8.45474910736084
1788681545106517500,12.879517578125,-5.710619926452637,0.8243535757064819,-8.539294242858887
1788681545116592400,12.88959228515625,-5.7941179275512695,0.675688624382019,-8.7152681350708
1788681545126640000,12.89964013671875,-5.484592437744141,0.5937620401382446,-8.82547664642334
1788681545136741000,12.9097412109375,-4.977320671081543,0.6851157546043396,-8.807893753051758
1788681545146815700,12.919815673828126,-5.054234504699707,0.9615712761878967,-8.766444206237793
1788681545156887600,12.929887451171876,-4.964077949523926,1.303044319152832,-8.676661491394043
1788681545166964500,12.939964599609375,-4.773589134216309,1.6521488428115845,-8.596755027770996
