time,seconds_elapsed,z,y,x
1788679041948055000,0.039054931640625,9.482755661010742,1.710868239402771,-2.251646041870117
1788679041965336000,0.056336181640625,9.425328254699707,1.765903115272522,-2.280359983444214
1788679041982617300,0.073617431640625,9.391828536987305,1.7467604875564575,-2.3186452388763428
1788679041999898600,0.090898681640625,9.410971641540527,1.6582261323928833,-2.352144718170166
1788679042017180000,0.108179931640625,9.523433685302734,1.557727575302124,-2.359323024749756
1788679042034461200,0.125461181640625,9.482755661010742,1.5170495510101318,-2.3784656524658203
1788679042051742500,0.142742431640625,9.315258979797363,1.581655740737915,-2.4119651317596436
1788679042069023700,0.160023681640625,9.231510162353516,1.667797327041626,-2.447857618331909
1788679042086305000,0.177304931640625,9.267401695251465,1.710868239402771,-2.4095723628997803
1788679042103586300,0.19458642578125,9.308079719543457,1.7060825824737549,-2.328216314315796
1788679042120867300,0.211867431640625,9.384650230407715,1.698904037475586,-2.287538528442383
1788679042138148600,0.229148681640625,9.391828536987305,1.6630117893218994,-2.3018953800201416
1788679042155430000,0.246429931640625,9.322437286376953,1.674975872039795,-2.2947168350219727
1788679042172711200,0.263711181640625,9.41336441040039,1.7228323221206665,-2.2947168350219727
1788679042189992400,0.280992431640625,9.45164966583252,1.7156537771224976,-2.2444677352905273
1788679042207273700,0.298273681640625,9.456435203552246,1.6654045581817627,-2.242074728012085
1788679042224555000,0.315554931640625,9.492327690124512,1.6366907358169556,-2.2851455211639404
1788679042241836000,0.3328359375,9.516255378723145,1.5792629718780518,-2.344966173171997
1788679042259117300,0.350117431640625,9.351150512695312,1.5361921787261963,-2.3162522315979004
1788679042276398600,0.367398681640625,9.265008926391602,1.6199408769607544,-2.3162522315979004
1788679042293679900,0.384679931640625,9.363115310668945,1.6917256116867065,-2.2396819591522217
1788679042310961200,0.401961181640625,9.442078590393066,1.734796404838562,-2.1511476039886475
1788679042328242400,0.419242431640625,9.391828536987305,1.7012969255447388,-2.163111686706543
1788679042345523700,0.436523681640625,9.312865257263184,1.7012969255447388,-2.2540390491485596
1788679042362805000,0.453804931640625,9.370293617248535,1.6701902151107788,-2.289931297302246
1788679042380086000,0.4710859375,9.473184585571289,1.6319050788879395,-2.242074728012085
1788679042397367300,0.4883671875,9.430113792419434,1.6295121908187866,-2.2396819591522217
1788679042414648600,0.505648681640625,9.4061861038208,1.6582261323928833,-2.203789710998535
1788679042431929900,0.522929931640625,9.470791816711426,1.703689694404602,-2.155933141708374
1788679042449211100,0.540211181640625,9.454042434692383,1.765903115272522,-2.1032910346984863
1788679042466492400,0.557492431640625,9.497113227844238,1.7802600860595703,-2.1535403728485107
1788679042483773700,0.574773681640625,9.257830619812012,1.703689694404602,-2.146361827850342
1788679042501055000,0.592054931640625,9.21715259552002,1.6893328428268433,-2.227717876434326
1788679042518336000,0.6093359375,9.31047248840332,1.7012969255447388,-2.187039852142334
1788679042535617300,0.6266171875,9.324830055236816,1.7156537771224976,-2.115255117416382
1788679042552898600,0.643898681640625,9.43489933013916,1.6941183805465698,-2.1200408935546875
1788679042570179800,0.661179931640625,9.363115310668945,1.648654818534851,-2.1104695796966553
1788679042587461000,0.678461181640625,9.255437850952148,1.6510475873947144,-2.1535403728485107
1788679042604742400,0.695742431640625,9.312865257263184,1.6151553392410278,-2.196611166000366
1788679042622023700,0.713023681640625,9.365508079528809,1.5314065217971802,-2.1678972244262695
1788679042639305000,0.730304931640625,9.415757179260254,1.5002998113632202,-2.062613010406494
1788679042656586000,0.7475859375,9.401400566101074,1.6295121908187866,-1.9836499691009521
1788679042673867300,0.7648671875,9.4660062789917,1.6893328428268433,-1.9860427379608154
1788679042691148500,0.7821484375,9.717252731323242,1.6941183805465698,-1.8711873292922974
1788679042708429800,0.799429931640625,10.068997383117676,1.7635103464126587,-1.892722725868225
1788679042725711000,0.816711181640625,9.588040351867676,1.7611174583435059,-1.919043779373169
1788679042742992400,0.833992431640625,9.176474571228027,1.7994025945663452,-2.0650060176849365
1788679042760273700,0.851273681640625,9.078369140625,1.7994025945663452,-2.2947168350219727
1788679042777555000,0.868554931640625,9.049654960632324,1.6893328428268433,-2.3712873458862305
1788679042794836200,0.885836181640625,9.336793899536133,1.576870083808899,-2.431107759475708
1788679042812117500,0.903117431640625,9.580862045288086,1.4261223077774048,-2.5220351219177246
1788679042829398500,0.9203984375,9.590433120727539,1.25144624710083,-2.60339093208313
1788679042846679800,0.9376796875,9.729216575622559,1.2275179624557495,-2.5986053943634033
1788679042863961000,0.954961181640625,9.832108497619629,1.2586246728897095,-2.4981069564819336
1788679042881242400,0.972242431640625,9.748359680175781,1.2610175609588623,-2.445464849472046
1788679042898523600,0.989523681640625,9.631111145019531,1.2681959867477417,-2.4287149906158447
1788679042915805000,1.006804931640625,9.631111145019531,1.3040883541107178,-2.366501569747925
1788679042933086200,1.024086181640625,9.592825889587402,1.397408366203308,-2.2779672145843506
1788679042950367500,1.041367431640625,9.492327690124512,1.5170495510101318,-2.225325107574463
1788679042967648500,1.0586484375,9.422935485839844,1.5864413976669312,-2.203789710998535
1788679042984929800,1.0759296875,9.332008361816406,1.612762451171875,-2.1750757694244385
1788679043002211000,1.093211181640625,9.358329772949219,1.6295121908187866,-2.1750757694244385
1788679043019492400,1.110492431640625,9.408578872680664,1.6319050788879395,-2.170290231704712
1788679043036773600,1.127773681640625,9.442078590393066,1.6247265338897705,-2.1774685382843018
1788679043054055000,1.145054931640625,9.358329772949219,1.5625132322311401,-2.2612173557281494
1788679043071336200,1.162336181640625,9.365508079528809,1.4333007335662842,-2.289931297302246
1788679043088617500,1.179617431640625,9.468399047851562,1.3830515146255493,-2.390429735183716
1788679043105898800,1.196898681640625,9.475577354431152,1.399801254272461,-2.5052852630615234
1788679043123179800,1.2141796875,9.461220741271973,1.4572290182113647,-2.4335005283355713
1788679043140461000,1.2314609375,9.44447135925293,1.5672988891601562,-2.376072883605957
1788679043157742300,1.248742431640625,9.487542152404785,1.7060825824737549,-2.3641088008880615
1788679043175023600,1.266023681640625,9.372686386108398,1.7874385118484497,-2.3162522315979004
1788679043192305000,1.283304931640625,9.41336441040039,1.919043779373169,-2.297109842300415
1788679043209586200,1.300586181640625,9.370293617248535,1.954936146736145,-2.3090739250183105
1788679043226867500,1.317867431640625,9.377471923828125,1.94297194480896,-2.359323024749756
1788679043244148700,1.335148681640625,9.410971641540527,1.852044701576233,-2.3641088008880615
1788679043261430000,1.352429931640625,9.439684867858887,1.7730815410614014,-2.3162522315979004
1788679043278711300,1.369711181640625,9.375079154968262,1.7850457429885864,-2.2923240661621094
1788679043295992300,1.386992431640625,9.389435768127441,1.8137595653533936,-2.306680917739868
1788679043313273600,1.404273681640625,9.372686386108398,1.7635103464126587,-2.2851455211639404
1788679043330555000,1.421554931640625,9.355937004089355,1.7587246894836426,-2.2468605041503906
1788679043347836200,1.438836181640625,9.44447135925293,1.8065811395645142,-2.2372891902923584
1788679043365117400,1.456117431640625,9.53061294555664,1.8137595653533936,-2.218146562576294
1788679043382398700,1.473398681640625,9.597611427307129,1.7922241687774658,-2.234896421432495
1788679043399680000,1.490679931640625,9.525827407836914,1.7754744291305542,-2.266003131866455
1788679043416961300,1.507961181640625,9.391828536987305,1.8041882514953613,-2.282752752304077
1788679043434242300,1.5252421875,9.231510162353516,1.9094724655151367,-2.287538528442383
1788679043451523600,1.542523681640625,9.17886734008789,2.021935224533081,-2.273181438446045
1788679043468804900,1.559804931640625,9.20997428894043,2.0578274726867676,-2.249253273010254
1788679043486086100,1.577086181640625,9.269794464111328,2.0673987865448,-2.2061824798583984
1788679043503367400,1.594367431640625,9.174081802368164,2.043470621109009,-2.273181438446045
1788679043520648700,1.611648681640625,8.9850492477417,2.0315065383911133,-2.3856441974639893
1788679043537930000,1.628929931640625,9.044869422912598,2.021935224533081,-2.447857618331909
1788679043555211300,1.646211181640625,9.226723670959473,1.9573289155960083,-2.4095723628997803
1788679043572492500,1.663492431640625,9.34875774383545,1.8783657550811768,-2.4263222217559814
1788679043589773800,1.68077392578125,9.437292098999023,1.8544375896453857,-2.478964328765869
1788679043607055000,1.69805517578125,9.492327690124512,1.801795482635498,-2.462214469909668
1788679043624336400,1.71533642578125,9.53779125213623,1.8041882514953613,-2.4358935356140137
1788679043641617400,1.732617431640625,9.56889820098877,1.8352949619293213,-2.407179594039917
1788679043658898700,1.749898681640625,9.53061294555664,1.8185452222824097,-2.423929452896118
1788679043676180000,1.767179931640625,9.473184585571289,1.8376877307891846,-2.4191436767578125
1788679043693461200,1.784461181640625,9.477970123291016,1.9166508913040161,-2.423929452896118
1788679043710742500,1.801742431640625,9.430113792419434,2.0171494483947754,-2.416750907897949
1788679043728023800,1.81902392578125,9.384650230407715,2.100898265838623,-2.4263222217559814
1788679043745305000,1.83630517578125,9.34875774383545,2.0578274726867676,-2.3856441974639893
1788679043762586400,1.85358642578125,9.377471923828125,2.0243279933929443,-2.3856441974639893
1788679043779867600,1.87086767578125,9.363115310668945,1.9932212829589844,-2.392822742462158
1788679043797149000,1.88814892578125,9.4061861038208,1.9836499691009521,-2.368894338607788
1788679043814430200,1.90543017578125,9.226723670959473,1.9405791759490967,-2.368894338607788
1788679043831711500,1.92271142578125,9.028120040893555,1.923829436302185,-2.455035924911499
1788679043848992500,1.939992431640625,8.889336585998535,1.911865234375,-2.50289249420166
1788679043866273800,1.957273681640625,8.894122123718262,1.9310078620910645,-2.4981069564819336
1788679043883555000,1.97455517578125,8.86062240600586,1.947757601737976,-2.5076780319213867
1788679043900836400,1.99183642578125,8.8438720703125,1.978864312171936,-2.50289249420166
1788679043918117600,2.00911767578125,9.056833267211914,2.0003998279571533,-2.486142635345459
1788679043935399000,2.02639892578125,9.286544799804688,1.950150489807129,-2.495713949203491
1788679043952680200,2.04368017578125,9.437292098999023,1.8903298377990723,-2.5052852630615234
1788679043969961500,2.06096142578125,9.432506561279297,1.852044701576233,-2.555534601211548
1788679043987242800,2.07824267578125,9.34875774383545,1.8496519327163696,-2.579462766647339
1788679044004524000,2.09552392578125,9.262616157531738,1.892722725868225,-2.548356056213379
1788679044021805300,2.112805419921875,9.276973724365234,1.97407865524292,-2.4765713214874268
1788679044039086600,2.130086669921875,9.375079154968262,2.069791555404663,-2.4095723628997803
1788679044056367600,2.14736767578125,9.430113792419434,2.0793628692626953,-2.3497519493103027
1788679044073649000,2.16464892578125,9.494720458984375,2.0506489276885986,-2.3880369663238525
1788679044090930200,2.18193017578125,9.556933403015137,1.9860427379608154,-2.416750907897949
1788679044108211500,2.19921142578125,9.4660062789917,1.9573289155960083,-2.4263222217559814
1788679044125492700,2.21649267578125,9.312865257263184,2.053041934967041,-2.423929452896118
1788679044142774000,2.23377392578125,9.245866775512695,2.117648124694824,-2.4095723628997803
1788679044160055300,2.25105517578125,9.324830055236816,2.132004976272583,-2.3569302558898926
1788679044177336600,2.268336669921875,9.387042999267578,2.1200408935546875,-2.3545374870300293
1788679044194617900,2.285617919921875,9.408578872680664,2.0985054969787598,-2.3641088008880615
1788679044211899100,2.302899169921875,9.312865257263184,2.0506489276885986,-2.3976082801818848
1788679044229180400,2.320180419921875,9.214759826660156,2.045863389968872,-2.392822742462158
1788679044246461700,2.337461669921875,9.190832138061523,2.0793628692626953,-2.3880369663238525
1788679044263743000,2.354742919921875,9.265008926391602,2.1128623485565186,-2.328216314315796
1788679044281024300,2.372024169921875,9.286544799804688,2.0985054969787598,-2.3258235454559326
1788679044298305300,2.38930517578125,9.276973724365234,2.0171494483947754,-2.3641088008880615
1788679044315586800,2.4065869140625,9.231510162353516,1.9405791759490967,-2.359323024749756
1788679044332867800,2.423867919921875,9.418149948120117,2.1583259105682373,-2.304288148880005
1788679044350149000,2.441149169921875,9.355937004089355,2.115255117416382,-2.2372891902923584
1788679044367430400,2.458430419921875,9.298508644104004,2.1200408935546875,-2.2995026111602783
1788679044384711700,2.475711669921875,9.265008926391602,2.1750757694244385,-2.3497519493103027
1788679044401993000,2.492992919921875,9.241081237792969,2.172683000564575,-2.289931297302246
1788679044419274200,2.510274169921875,9.274580955505371,2.2205393314361572,-2.289931297302246
1788679044436555500,2.527555419921875,9.260223388671875,2.234896421432495,-2.3258235454559326
1788679044453836800,2.5448369140625,9.255437850952148,2.2229323387145996,-2.3497519493103027
1788679044471118000,2.5621181640625,9.286544799804688,2.179861545562744,-2.3617160320281982
1788679044488399400,2.5793994140625,9.346364974975586,2.1367905139923096,-2.4023938179016113
1788679044505680600,2.5966806640625,9.389435768127441,2.122433662414551,-2.392822742462158
1788679044522962000,2.6139619140625,9.367900848388672,2.146361827850342,-2.3712873458862305
1788679044540243200,2.6312431640625,9.226723670959473,2.1846470832824707,-2.3952155113220215
1788679044557524500,2.6485244140625,9.18843936920166,2.1750757694244385,-2.416750907897949
1788679044574805500,2.665805419921875,9.236295700073242,2.1343977451324463,-2.4119651317596436
1788679044592086800,2.683086669921875,9.198010444641113,2.1128623485565186,-2.4023938179016113
1788679044609368000,2.7003681640625,9.169296264648438,2.117648124694824,-2.383251428604126
1788679044626649300,2.7176494140625,9.18843936920166,2.1367905139923096,-2.335394859313965
1788679044643930600,2.7349306640625,9.312865257263184,2.1439690589904785,-2.342573404312134
1788679044661212000,2.7522119140625,9.260223388671875,2.0985054969787598,-2.344966173171997
1788679044678493200,2.7694931640625,9.140582084655762,2.115255117416382,-2.3569302558898926
1788679044695774500,2.7867744140625,9.073583602905273,2.1678972244262695,-2.344966173171997
1788679044713055700,2.8040556640625,9.013762474060059,2.179861545562744,-2.313859462738037
1788679044730337000,2.8213369140625,9.133403778076172,2.2372891902923584,-2.2923240661621094
1788679044747618300,2.838618408203125,9.279366493225098,2.2372891902923584,-2.256431818008423
1788679044764899600,2.855899658203125,9.30329418182373,2.1822543144226074,-2.2205393314361572
1788679044782180900,2.873180908203125,9.494720458984375,2.148754835128784,-2.2061824798583984
1788679044799462100,2.890462158203125,9.439684867858887,2.069791555404663,-2.2372891902923584
1788679044816743400,2.907743408203125,9.387042999267578,2.1343977451324463,-2.139183521270752
1788679044834024700,2.925024658203125,9.052047729492188,1.9716858863830566,-2.172683000564575
1788679044851306000,2.942305908203125,9.066405296325684,2.273181438446045,-2.0889341831207275
1788679044868587300,2.959587158203125,8.621339797973633,2.0267207622528076,-1.950150489807129
1788679044885868500,2.97686865234375,8.769695281982422,1.3423734903335571,-2.297109842300415
1788679044903149600,2.994149658203125,9.133403778076172,1.4380863904953003,-2.8115665912628174
1788679044920430800,3.011430908203125,9.090332984924316,2.0003998279571533,-2.4502503871917725
1788679044937712000,3.028712158203125,7.087540626525879,3.601198196411133,-1.698904037475586
1788679044954993400,3.045993408203125,8.061419486999512,4.972285270690918,-0.8015955686569214
1788679044972274700,3.063274658203125,7.884350776672363,4.505684852600098,-0.2105683982372284
1788679044989556000,3.080555908203125,7.487142086029053,3.6394832134246826,-0.03349951654672623
1788679045006837200,3.097837158203125,7.953742504119873,2.825923442840576,-0.44745782017707825
1788679045024118500,3.115118408203125,8.906085968017578,1.4835500717163086,-0.6867401003837585
1788679045041399800,3.13239990234375,9.915857315063477,1.277767300605774,-1.3399807214736938
1788679045058681000,3.14968115234375,10.39202880859375,1.0600204467773438,-1.9932212829589844
1788679045075962400,3.16696240234375,10.279565811157227,0.6317051649093628,-1.6606189012527466
1788679045093243600,3.18424365234375,14.218152046203613,0.31345975399017334,-1.0791629552841187
1788679045110525000,3.20152490234375,11.710474014282227,0.4977070987224579,-0.9475577473640442
1788679045127806200,3.21880615234375,10.030712127685547,1.3543375730514526,-0.9978070259094238
1788679045145087500,3.23608740234375,9.726823806762695,1.4811571836471558,-0.9690931439399719
1788679045162368800,3.25336865234375,9.91825008392334,1.2705888748168945,-0.8566305041313171
1788679045179650000,3.270650146484375,10.262816429138184,1.3280165195465088,-0.5144568681716919
1788679045196931000,3.28793115234375,9.425328254699707,1.3184453248977661,0.05742774158716202
1788679045214212600,3.305212646484375,9.908679008483887,1.7276179790496826,0.20099709928035736
1788679045231493600,3.32249365234375,10.604990005493164,1.6845471858978271,0.18903298676013947
1788679045248775000,3.33977490234375,10.224531173706055,1.4333007335662842,0.06699903309345245
1788679045266056200,3.35705615234375,10.1216402053833,1.4213366508483887,-0.28235307335853577
1788679045283337500,3.37433740234375,9.657432556152344,1.9310078620910645,-1.2801600694656372
1788679045300618800,3.39161865234375,9.485149383544922,2.0315065383911133,-0.794417142868042
1788679045317900000,3.408900146484375,9.657432556152344,1.7060825824737549,0.1459621787071228
1788679045335181300,3.426181396484375,9.255437850952148,1.8448662757873535,0.26560330390930176
1788679045352462600,3.443462646484375,9.068798065185547,1.765903115272522,-0.10049854964017868
1788679045369744000,3.460743896484375,9.738788604736328,1.8664016723632812,-0.4953143000602722
1788679045387025200,3.478025146484375,10.660024642944336,1.8687944412231445,0.1459621787071228
1788679045404306400,3.495306396484375,10.803594589233398,1.5026925802230835,0.17706887423992157
1788679045421587700,3.512587646484375,10.356136322021484,1.6773686408996582,0.3326023519039154
1788679045438869000,3.529868896484375,10.047462463378906,1.8065811395645142,0.3397808074951172
1788679045456150300,3.547150390625,9.714859962463379,1.911865234375,0.5048855543136597
1788679045473431600,3.564431640625,9.987641334533691,1.9046868085861206,0.397208571434021
1788679045490712600,3.581712646484375,10.147960662841797,2.0171494483947754,0.5551348328590393
1788679045507994000,3.598994140625,10.200602531433105,2.060220241546631,0.4785645306110382
1788679045525275100,3.616275146484375,9.884750366210938,2.1678972244262695,0.4570291340351105
1788679045542556400,3.633556396484375,9.66221809387207,2.4502503871917725,0.34695929288864136
1788679045559837700,3.650837646484375,9.693324089050293,2.6608188152313232,0.5790630578994751
1788679045577119000,3.668118896484375,9.710074424743652,2.4119651317596436,0.6532405614852905
1788679045594400300,3.685400146484375,9.425328254699707,2.6847469806671143,0.6197410821914673
1788679045611681500,3.702681640625,9.22433090209961,2.7900311946868896,0.576670229434967
1788679045628962800,3.719962890625,9.150154113769531,2.9048867225646973,0.7657032608985901
1788679045646244000,3.737244140625,9.174081802368164,3.136990547180176,1.0001999139785767
1788679045663525400,3.754525390625,8.695517539978027,3.1513473987579346,0.7657032608985901
1788679045680806700,3.771806640625,8.657232284545898,3.005385160446167,0.44027936458587646
1788679045698088000,3.789087890625,8.920442581176758,2.8761727809906006,0.4833501875400543
1788679045715369200,3.806369140625,9.248259544372559,2.9623143672943115,0.6364908218383789
1788679045732650500,3.823650390625,9.29611587524414,2.9455647468566895,0.8231309652328491
1788679045749931800,3.840931884765625,9.300901412963867,3.0005996227264404,0.9595218896865845
1788679045767213000,3.858213134765625,9.207581520080566,2.981456995010376,1.1054840087890625
1788679045784494000,3.875494140625,9.040083885192871,3.0867412090301514,1.2299108505249023
1788679045801775600,3.892775634765625,8.889336585998535,3.25663161277771,1.0552347898483276
1788679045819056600,3.910056640625,8.975478172302246,3.22552490234375,1.00259268283844
1788679045836338000,3.927337890625,8.80798053741455,3.2039895057678223,0.97148597240448
1788679045853619200,3.944619140625,8.774480819702148,3.208775281906128,0.8949156403541565
1788679045870900500,3.961900390625,9.047262191772461,2.9312076568603516,0.7489534616470337
1788679045888181800,3.979181640625,9.140582084655762,3.0628130435943604,0.9044869542121887
1788679045905463000,3.996463134765625,9.152546882629395,2.9862427711486816,0.9810572862625122
1788679045922744300,4.013744384765625,9.162117958068848,3.0388846397399902,0.6795616149902344
1788679045940025600,4.031025634765625,9.06401252746582,3.084348440170288,1.0648061037063599
1788679045957307000,4.048306884765625,9.056833267211914,3.074777126312256,1.25144624710083
1788679045974588200,4.065588134765625,9.276973724365234,3.139383316040039,1.301695466041565
1788679045991869400,4.082869384765625,9.556933403015137,2.9790642261505127,1.3040883541107178
1788679046009150700,4.100150634765625,9.731609344482422,2.7828526496887207,1.3184453248977661
1788679046026432000,4.117431884765625,9.681360244750977,2.895315408706665,1.2729816436767578
1788679046043713300,4.13471337890625,9.523433685302734,2.9623143672943115,1.1700903177261353
1788679046060994300,4.151994384765625,9.399007797241211,3.0556344985961914,1.1700903177261353
1788679046078275600,4.169275634765625,9.013762474060059,3.2063822746276855,1.1700903177261353
1788679046095556900,4.186556884765625,8.788837432861328,3.1992039680480957,1.1222338676452637
1788679046112838100,4.203838134765625,8.930013656616211,3.232703447341919,1.1892328262329102
1788679046130119400,4.221119384765625,9.028120040893555,3.0963125228881836,1.1748759746551514
1788679046147400700,4.238400634765625,9.154939651489258,3.153740167617798,1.2323036193847656
1788679046164682000,4.255681884765625,9.317651748657227,3.1130621433258057,1.1676974296569824
1788679046181963300,4.27296337890625,9.116654396057129,3.280559778213501,1.1270195245742798
1788679046199244500,4.29024462890625,9.131011009216309,3.2614171504974365,1.124626636505127
1788679046216525800,4.30752587890625,9.245866775512695,3.0795626640319824,1.0121639966964722
1788679046233807000,4.32480712890625,9.30329418182373,3.0269205570220947,0.9260223507881165
1788679046251088400,4.34208837890625,9.269794464111328,3.115455150604248,1.0887342691421509
1788679046268369700,4.35936962890625,9.18843936920166,3.1968109607696533,1.153340458869934
1788679046285651000,4.37665087890625,9.260223388671875,3.1106693744659424,1.0648061037063599
1788679046302932200,4.39393212890625,9.389435768127441,3.1034910678863525,1.0456634759902954
1788679046320213200,4.411213134765625,9.355937004089355,3.263810157775879,1.6007983684539795
1788679046337494500,4.42849462890625,9.145368576049805,3.4648072719573975,1.2394821643829346
1788679046354775800,4.44577587890625,9.372686386108398,2.9479575157165527,0.6029912829399109
1788679046372057000,4.46305712890625,9.810572624206543,2.5938198566436768,0.2967100143432617
1788679046389338400,4.48033837890625,9.832108497619629,2.6081767082214355,0.4546363055706024
1788679046406619600,4.49761962890625,9.719645500183105,2.792423963546753,0.5120640397071838
1788679046423901000,4.51490087890625,9.42054271697998,2.8498518466949463,0.5072783827781677
1788679046441182200,4.53218212890625,9.284152030944824,3.067598581314087,0.5335994362831116
1788679046458463500,4.54946337890625,8.894122123718262,3.1034910678863525,0.7537391185760498
1788679046475744800,4.566744873046875,8.81515884399414,3.122633457183838,0.7657032608985901
1788679046493025800,4.58402587890625,9.09272575378418,3.046063184738159,0.7058826684951782
1788679046510307300,4.601307373046875,9.363115310668945,2.9766714572906494,0.7417750358581543
1788679046527588400,4.61858837890625,9.554540634155273,3.029313564300537,0.8566305041313171
1788679046544869600,4.63586962890625,8.963513374328613,3.1896326541900635,0.8590233325958252
1788679046562151000,4.65315087890625,8.776873588562012,3.218346357345581,0.6508477330207825
1788679046579432200,4.67043212890625,9.245866775512695,2.861815929412842,0.7010970115661621
1788679046596713500,4.68771337890625,8.989834785461426,2.9934210777282715,0.5048855543136597
1788679046613994800,4.704994873046875,8.446663856506348,3.4480574131011963,0.5934200286865234
1788679046631276000,4.722276123046875,8.135597229003906,3.321237802505493,0.9044869542121887
1788679046648557300,4.739557373046875,8.401200294494629,3.184846878051758,0.49292147159576416
1788679046665838600,4.756838623046875,8.762516975402832,3.6442689895629883,0.3565305769443512
1788679046683119900,4.774119873046875,8.71226692199707,3.555734395980835,1.0552347898483276
1788679046700401200,4.791401123046875,8.638090133666992,3.383451223373413,0.9092726111412048
1788679046717682200,4.80868212890625,8.621339797973633,3.211168050765991,1.031306505203247
1788679046734963500,4.82596337890625,8.784051895141602,3.3475589752197266,1.306481122970581
1788679046752244700,4.84324462890625,9.111868858337402,3.1728827953338623,1.0265209674835205
1788679046769526000,4.860526123046875,9.418149948120117,2.943171739578247,0.9092726111412048
1788679046786807300,4.877807373046875,9.150154113769531,3.2829527854919434,1.2203395366668701
1788679046804088600,4.895088623046875,8.415556907653809,3.589233875274658,1.9046868085861206
1788679046821369900,4.912369873046875,7.953742504119873,3.460021495819092,2.117648124694824
1788679046838651100,4.929651123046875,8.93958568572998,2.8737800121307373,1.6390835046768188
1788679046855932400,4.946932373046875,8.551948547363281,1.9645073413848877,1.8664016723632812
1788679046873213700,4.964213623046875,9.817750930786133,2.148754835128784,1.5314065217971802
1788679046890494700,4.98149462890625,9.107083320617676,2.227717876434326,1.97407865524292
1788679046907776000,4.99877587890625,8.707481384277344,2.53399920463562,2.2325034141540527
1788679046925057300,5.016057373046875,8.451449394226074,2.610569477081299,1.9214365482330322
1788679046942338600,5.033338623046875,7.587640762329102,2.100898265838623,1.277767300605774
1788679046959619800,5.050619873046875,8.0350980758667,2.093719720840454,0.24406790733337402
1788679046976901000,5.067901123046875,8.322237014770508,2.3162522315979004,0.38285163044929504
1788679046994182400,5.085182373046875,8.295916557312012,2.062613010406494,1.3040883541107178
1788679047011463700,5.102463623046875,8.408378601074219,2.328216314315796,2.1583259105682373
1788679047028745000,5.119744873046875,8.11406135559082,2.390429735183716,2.854637384414673
1788679047046026000,5.13702587890625,7.456035137176514,1.25144624710083,2.7110681533813477
1788679047063307300,5.154307373046875,8.037490844726562,0.9643075466156006,2.469393014907837
1788679047080588500,5.171588623046875,7.915457248687744,0.7776673436164856,1.9932212829589844
1788679047097869800,5.188869873046875,8.61894702911377,1.1724830865859985,2.132004976272583
1788679047115151000,5.206151123046875,9.001798629760742,1.1437692642211914,2.713460922241211
1788679047132432400,5.223432373046875,8.709874153137207,0.5431707501411438,3.187239646911621
1788679047149713700,5.240713623046875,8.123632431030273,-0.1746760457754135,3.436093330383301
1788679047166995000,5.257994873046875,7.671389579772949,-0.7585247755050659,3.6777684688568115
1788679047184276200,5.275276123046875,7.618747234344482,-0.9092726111412048,3.9385859966278076
1788679047201557500,5.2925576171875,7.121040344238281,-0.7561319470405579,4.161118507385254
1788679047218838500,5.309838623046875,6.675975322723389,-0.42352959513664246,4.390829563140869
1788679047236119800,5.327119873046875,6.245266914367676,-0.38285163044929504,4.914857864379883
1788679047253401000,5.344401123046875,5.558526992797852,-0.6149554252624512,5.041677474975586
1788679047270682400,5.361682373046875,5.077569484710693,-1.1509476900100708,4.962714195251465
1788679047287963600,5.378963623046875,5.66620397567749,-1.5960127115249634,4.321437835693359
1788679047305245000,5.396244873046875,3.9433717727661133,-2.0793628692626953,4.567898273468018
1788679047322526000,5.41352587890625,3.16331148147583,-2.3162522315979004,4.364508628845215
1788679047339807500,5.430807373046875,2.1678972244262695,-2.589034080505371,3.84765887260437
1788679047357088500,5.448088623046875,2.53399920463562,-2.7637102603912354,3.9050865173339844
1788679047374369800,5.465369873046875,3.5676984786987305,-3.94097900390625,4.2831525802612305
1788679047391651000,5.482651123046875,3.634697675704956,-5.551348686218262,4.565505504608154
1788679047408932400,5.499932373046875,3.2997024059295654,-6.288337707519531,5.065605640411377
1788679047426213600,5.517213623046875,3.5581271648406982,-6.714260101318359,6.50608491897583
1788679047443495000,5.534494873046875,4.931607246398926,-7.214360237121582,9.025727272033691
1788679047460776200,5.551776123046875,6.905686378479004,-7.018148899078369,11.722437858581543
1788679047478057200,5.56905712890625,7.798209190368652,-6.070590972900391,13.627124786376953
1788679047495338500,5.58633837890625,8.298309326171875,-5.309673309326172,14.816357612609863
1788679047512619800,5.603619873046875,8.070990562438965,-5.465207099914551,15.450455665588379
1788679047529901000,5.620901123046875,8.532805442810059,-5.639883041381836,15.548561096191406
1788679047547182300,5.638182373046875,8.090133666992188,-5.163711071014404,15.75434398651123
1788679047564463600,5.655463623046875,6.764509677886963,-4.6301116943359375,15.577275276184082
1788679047581745000,5.672744873046875,5.592026710510254,-4.59421968460083,15.146567344665527
1788679047599026000,5.69002587890625,4.709074974060059,-4.500899314880371,14.787644386291504
1788679047616309200,5.707309326171875,5.635097503662109,-3.6059837341308594,15.87159252166748
1788679047633588500,5.72458837890625,3.1824541091918945,-2.4095723628997803,16.99143409729004
1788679047650869800,5.741869873046875,2.6560330390930176,-1.9357935190200806,16.804794311523438
1788679047668151000,5.759151123046875,0.6795616149902344,-2.4574289321899414,15.170495986938477
1788679047685432300,5.776432373046875,-0.6699903607368469,-4.701896667480469,11.169695854187012
1788679047702713300,5.79371337890625,8.10688304901123,-4.417150497436523,9.930213928222656
1788679047719994600,5.81099462890625,5.276174068450928,-4.01037073135376,11.076375961303711
1788679047737276000,5.82827587890625,10.133604049682617,-3.8333017826080322,10.03549861907959
1788679047754557200,5.84555712890625,3.5341989994049072,-4.213760852813721,8.81515884399414
1788679047771838500,5.86283837890625,3.081955671310425,-4.639683246612549,7.735995769500732
1788679047789119700,5.88011962890625,4.036691665649414,-4.491328239440918,8.37966537475586
1788679047806400800,5.89740087890625,1.9836499691009521,-4.529613494873047,6.45822811126709
1788679047823682000,5.91468212890625,2.885744094848633,-5.276174068450928,4.9435715675354
1788679047840963300,5.93196337890625,3.462414264678955,-5.120640277862549,6.6592254638671875
1788679047858244600,5.94924462890625,3.1585259437561035,-3.2590243816375732,10.001998901367188
1788679047875526000,5.96652587890625,2.572284460067749,-2.201396942138672,9.714859962463379
1788679047892807200,5.98380712890625,3.7974095344543457,-2.8809585571289062,10.214960098266602
1788679047910088200,6.001088134765625,5.678168296813965,-2.469393014907837,9.961320877075195
1788679047927369500,6.018369384765625,6.778866767883301,-1.9812572002410889,10.255638122558594
1788679047944650800,6.035650634765625,7.814958572387695,-1.6199408769607544,10.712666511535645
1788679047961932000,6.05293212890625,4.0319061279296875,-0.6460621356964111,8.2695951461792
1788679047979213300,6.07021337890625,-10.6624174118042,-2.280359983444214,-0.9523434042930603
1788679047996494600,6.08749462890625,4.677968502044678,-1.7826528549194336,8.338987350463867
1788679048013776000,6.10477587890625,8.35573673248291,-0.46420758962631226,8.449056625366211
1788679048031057000,6.122056884765625,3.2614171504974365,-2.4023938179016113,5.61116886138916
1788679048048338200,6.139338134765625,-2.4598217010498047,0.5958128571510315,5.5034918785095215
1788679048065619500,6.156619384765625,0.25363919138908386,0.3278166949748993,8.047062873840332
1788679048082900700,6.173900634765625,2.7661030292510986,-0.2225325107574463,7.884350776672363
1788679048100182000,6.19118212890625,1.6845471858978271,-1.373480200767517,5.924628734588623
1788679048117463000,6.208463134765625,0.8590233325958252,-1.6366907358169556,6.345765590667725
1788679048134744300,6.225744384765625,0.32303106784820557,-0.32303106784820557,9.145368576049805
1788679048152025600,6.243025634765625,-0.7130611538887024,0.2727817893028259,8.228917121887207
1788679048169307000,6.260306884765625,-0.5527420043945312,-0.16271193325519562,8.14516830444336
1788679048186588200,6.277588134765625,-0.33020952343940735,-0.8709874153137207,7.872386455535889
1788679048203869200,6.294869140625,-0.7513462901115417,-2.132004976272583,6.147161483764648
1788679048221150500,6.312150390625,1.3591232299804688,-3.7423746585845947,5.230710506439209
1788679048238431700,6.329431640625,2.0315065383911133,-6.752545356750488,5.032105922698975
1788679048255713000,6.346713134765625,0.19142581522464752,-5.472385406494141,10.05703353881836
1788679048272994300,6.363994384765625,-0.6556333899497986,-3.2279176712036133,10.526026725769043
1788679048290275300,6.381275390625,-1.8089739084243774,-4.163511276245117,11.243873596191406
1788679048307556600,6.398556640625,-1.0528420209884644,-4.108476638793945,11.97607707977295
1788679048324838000,6.415837890625,1.1629117727279663,-4.273581027984619,10.214960098266602
1788679048342119200,6.433119140625,3.290131092071533,-7.530212879180908,17.577674865722656
1788679048359400400,6.450400390625,-1.9669002294540405,-6.041877269744873,6.98704195022583
1788679048376681500,6.467681396484375,-1.828116536140442,-5.654240131378174,6.065805435180664
1788679048393962800,6.484962646484375,-2.335394859313965,-5.931807518005371,9.047262191772461
1788679048411244000,6.502244140625,-1.954936146736145,-6.226124286651611,8.642875671386719
1788679048428525300,6.519525390625,-0.760917603969574,-6.496513366699219,7.585247993469238
1788679048445806600,6.536806640625,-0.4905286431312561,-7.276573657989502,5.869594097137451
1788679048463087600,6.554087646484375,-0.8039883971214294,-6.285944938659668,6.5491557121276855
1788679048480369000,6.571368896484375,-0.9260223507881165,-6.900900363922119,6.096911907196045
1788679048497650200,6.588650146484375,-0.44027936458587646,-7.491927623748779,5.400600910186768
1788679048514931500,6.605931396484375,-0.2871387302875519,-8.200202941894531,3.627519130706787
1788679048532212700,6.623212646484375,0.44027936458587646,-7.977670669555664,4.431507587432861
1788679048549494000,6.640493896484375,0.41156548261642456,-7.5708909034729,4.878965377807617
1788679048566775000,6.657775146484375,-0.06699903309345245,-6.551548480987549,6.884150981903076
1788679048584056300,6.675056396484375,-1.0815558433532715,-6.948757171630859,6.845865726470947
1788679048601337600,6.692337646484375,-0.038285162299871445,-6.63769006729126,6.50608491897583
1788679048618619000,6.709618896484375,-0.02392822690308094,-5.8337016105651855,7.417750358581543
1788679048635900200,6.726900146484375,-0.35413774847984314,-4.579862594604492,3.1800613403320312
1788679048653181400,6.744181396484375,1.552941918373108,-6.003592014312744,4.443471431732178
1788679048670462700,6.761462646484375,-0.7824530005455017,-7.9728851318359375,6.118447303771973
1788679048687743700,6.77874365234375,-0.26560330390930176,-9.724431037902832,6.166304111480713
1788679048705025000,6.79602490234375,-0.06939185410737991,-12.488141059875488,5.675775527954102
1788679048722306300,6.813306396484375,-0.004785645287483931,-13.359128952026367,5.113461971282959
1788679048739587300,6.83058740234375,-0.4259224236011505,-11.82293701171875,5.31685209274292
1788679048756868600,6.84786865234375,-0.7417750358581543,-8.449056625366211,5.517848968505859
1788679048774150000,6.86514990234375,0.7010970115661621,-7.774280548095703,4.9052863121032715
1788679048791431200,6.88243115234375,-1.674975872039795,-7.874779224395752,4.5822553634643555
1788679048808712400,6.89971240234375,-1.8424733877182007,-9.049654960632324,2.974278450012207
1788679048825993700,6.91699365234375,-1.5912270545959473,-9.10229778289795,3.476771354675293
1788679048843274800,6.934274658203125,-1.4572290182113647,-8.059026718139648,3.7399818897247314
1788679048860556000,6.95155615234375,-1.4141582250595093,-9.095118522644043,4.5200419425964355
1788679048877837300,6.96883740234375,-0.8781659007072449,-9.035298347473145,3.8045880794525146
1788679048895118600,6.98611865234375,-1.074377417564392,-8.161917686462402,3.5270206928253174
1788679048912400000,7.00339990234375,-1.0480563640594482,-9.042476654052734,3.2135608196258545
1788679048929681000,7.020680908203125,-1.368694543838501,-9.456435203552246,3.476771354675293
1788679048946962200,7.037962158203125,-0.8015955686569214,-8.094919204711914,2.8354947566986084
1788679048964243500,7.055243408203125,-1.7156537771224976,-6.1328043937683105,2.7278177738189697
1788679048981524700,7.072524658203125,-1.210768222808838,-4.4650068283081055,2.227717876434326
1788679048998806000,7.089805908203125,-0.33738797903060913,-4.7712883949279785,3.16331148147583
1788679049016087300,7.10708740234375,-0.9882357716560364,-6.726224422454834,2.964707374572754
1788679049033368300,7.124368408203125,-1.6319050788879395,-7.88913631439209,2.407179594039917
1788679049050649600,7.141649658203125,-1.1700903177261353,-6.709474563598633,1.459621787071228
1788679049067931000,7.158930908203125,-0.7010970115661621,-6.946363925933838,1.3399807214736938
1788679049085212200,7.176212158203125,-0.8015955686569214,-8.58784008026123,1.8664016723632812
1788679049102493200,7.1934931640625,-1.0791629552841187,-10.222138404846191,2.1822543144226074
1788679049119774500,7.2107744140625,-1.0767701864242554,-10.794022560119629,1.9405791759490967
1788679049137055700,7.2280556640625,-1.0791629552841187,-11.901900291442871,1.8951154947280884
1788679049154337000,7.2453369140625,-0.20099709928035736,-13.674981117248535,1.765903115272522
1788679049171618300,7.262618408203125,-0.9308080077171326,-13.359128952026367,2.785245656967163
1788679049188899300,7.2798994140625,-0.6125625967979431,-10.315458297729492,1.423729419708252
1788679049206180600,7.2971806640625,-1.1222338676452637,-6.874579429626465,-0.02392822690308094
1788679049223462000,7.3144619140625,-0.7561319470405579,-4.967499732971191,-0.7776673436164856
1788679049240743200,7.3317431640625,-0.2105683982372284,-9.157332420349121,0.5383850932121277
1788679049258024200,7.349024169921875,0.13639089465141296,-13.782658576965332,1.1820544004440308
1788679049275305500,7.366305419921875,-0.28235307335853577,-11.877971649169922,1.545763373374939
1788679049292586800,7.383586669921875,-0.8949156403541565,-9.611968994140625,0.851844847202301
1788679049309868000,7.400867919921875,-0.040677983313798904,-7.6737823486328125,-1.038485050201416
1788679049327149300,7.4181494140625,1.4428720474243164,-6.585047721862793,-1.8735800981521606
1788679049344430300,7.435430419921875,-0.5407779216766357,-13.87358570098877,-3.438486099243164
1788679049361711600,7.452711669921875,0.040677983313798904,-15.558133125305176,-0.7824530005455017
1788679049378993000,7.469992919921875,-0.39960137009620667,-16.63968849182129,1.5672988891601562
1788679049396274200,7.487274169921875,-0.43549370765686035,-10.389636039733887,2.8211379051208496
1788679049413555500,7.504555419921875,0.6532405614852905,-10.3681001663208,1.1174482107162476
1788679049430836500,7.52183642578125,0.11246266216039658,-10.810772895812988,0.0526420995593071
1788679049448117800,7.53911767578125,-0.41156548261642456,-10.911271095275879,0.20817556977272034
1788679049465399000,7.55639892578125,0.349352091550827,-10.01156997680664,0.4426721930503845
1788679049482680300,7.573680419921875,0.02392822690308094,-10.03549861907959,0.6269195079803467
1788679049499961600,7.590961669921875,-0.16749759018421173,-9.877572059631348,-0.08853443711996078
1788679049517242600,7.60824267578125,-0.019142581149935722,-9.525827407836914,-1.0552347898483276
1788679049534524000,7.62552392578125,0.019142581149935722,-9.635896682739258,-1.9764715433120728
1788679049551805200,7.64280517578125,-0.3565305769443512,-9.844072341918945,-1.4404792785644531
1788679049569086500,7.66008642578125,-0.007178467698395252,-9.927821159362793,-1.1341979503631592
1788679049586367700,7.67736767578125,-0.04546362906694412,-9.853643417358398,-0.8542376756668091
1788679049603648800,7.694648681640625,-0.16271193325519562,-10.28195858001709,-0.4019941985607147
1788679049620930000,7.711929931640625,0.2105683982372284,-10.114460945129395,-0.43549370765686035
1788679049638211300,7.72921142578125,-0.02153540402650833,-10.080962181091309,-0.5958128571510315
1788679049655492600,7.74649267578125,-0.12442677468061447,-10.083354949951172,-0.5096712112426758
1788679049672774000,7.76377392578125,0.06699903309345245,-9.66221809387207,-0.6652047038078308
1788679049690055000,7.781054931640625,-0.12681959569454193,-9.7938232421875,-0.607776939868927
1788679049707336200,7.798336181640625,-0.05024927482008934,-9.954142570495605,-0.6197410821914673
1788679049724617500,7.815617431640625,-0.09092725813388824,-10.052248001098633,-0.5886343717575073
1788679049741898800,7.832898681640625,-0.15314064919948578,-10.059426307678223,-0.44027936458587646
1788679049759180000,7.850179931640625,-0.16510476171970367,-10.126425743103027,-0.3613162338733673
1788679049776461000,7.8674609375,0.6245267391204834,-9.492327690124512,-0.41156548261642456
1788679049793742300,7.884742431640625,-0.31106695532798767,-9.281759262084961,-0.9427721500396729
1788679049811023600,7.902023681640625,-0.16271193325519562,-9.55214786529541,-0.794417142868042
1788679049828305000,7.919304931640625,-0.3756731450557709,-9.494720458984375,-0.4211367964744568
1788679049845586200,7.936586181640625,-0.18903298676013947,-9.822537422180176,-0.4307080805301666
1788679049862867200,7.9538671875,-0.275174617767334,-9.851250648498535,-0.6699903607368469
1788679049880148500,7.9711484375,-0.059820566326379776,-9.963713645935059,-0.6149554252624512
1788679049897429800,7.9884296875,0.14835500717163086,-9.980463027954102,-0.34695929288864136
1788679049914711000,8.0057109375,0.10049854964017868,-9.872786521911621,-0.2847459018230438
1788679049931992000,8.022991943359376,-0.08374879509210587,-9.89432144165039,-0.4785645306110382
1788679049949273300,8.0402734375,-0.1818545162677765,-9.89432144165039,-0.6364908218383789
1788679049966554600,8.0575546875,-0.18903298676013947,-9.8871431350708,-0.727418065071106
1788679049983836000,8.0748359375,-0.13878370821475983,-9.853643417358398,-0.7561319470405579
1788679050001117200,8.0921171875,-0.12681959569454193,-9.839286804199219,-0.7489534616470337
1788679050018398200,8.109398193359375,-0.07178468257188797,-9.863214492797852,-0.7824530005455017
1788679050035679500,8.126679443359375,-0.06939185410737991,-9.978070259094238,-0.8303094506263733
1788679050052960800,8.143960693359375,-0.11485548317432404,-9.990034103393555,-0.9068797826766968
1788679050070241800,8.16124169921875,-0.11964113265275955,-10.00439167022705,-1.0049854516983032
1788679050087523000,8.178523193359375,-0.17946170270442963,-9.990034103393555,-1.1437692642211914
1788679050104804400,8.195804443359375,-0.33738797903060913,-9.875179290771484,-1.2442678213119507
1788679050122085600,8.213085693359375,-0.46899324655532837,-9.765109062194824,-1.1629117727279663
1788679050139367000,8.230366943359375,-0.672383189201355,-9.714859962463379,-0.9978070259094238
1788679050156648000,8.24764794921875,-0.8542376756668091,-9.731609344482422,-0.7537391185760498
1788679050173929200,8.26492919921875,-0.8135597109794617,-9.686145782470703,-0.5455635786056519
1788679050191210500,8.28221044921875,-0.9427721500396729,-9.707681655883789,-0.39960137009620667
1788679050208491800,8.29949169921875,-0.7537391185760498,-9.872786521911621,-0.4019941985607147
1788679050225773000,8.31677294921875,-0.7489534616470337,-10.009177207946777,-0.4091726839542389
1788679050243054000,8.33405419921875,-0.6867401003837585,-9.868000984191895,-0.4546363055706024
1788679050260335400,8.35133544921875,-0.7369893789291382,-9.611968994140625,-0.5072783827781677
1788679050277616600,8.36861669921875,-1.0145567655563354,-9.53779125213623,-0.607776939868927
1788679050294898000,8.38589794921875,-1.2729816436767578,-9.616754531860352,-0.641276478767395
1788679050312179200,8.40317919921875,-1.3710874319076538,-9.724431037902832,-0.6484549641609192
1788679050329460200,8.420460205078125,-1.2442678213119507,-9.779465675354004,-0.6340979933738708
1788679050346741500,8.437741455078125,-1.1509476900100708,-9.765109062194824,-0.641276478767395
1788679050364022800,8.455022705078125,-0.9332008361816406,-9.66221809387207,-0.7082754969596863
1788679050381304000,8.472303955078125,-0.8901300430297852,-9.667003631591797,-0.7417750358581543
1788679050398585300,8.48958544921875,-0.8805587291717529,-9.741181373596191,-0.7704889178276062
1788679050415866400,8.506866455078125,-0.9667003750801086,-9.784252166748047,-0.7657032608985901
1788679050433147600,8.524147705078125,-1.038485050201416,-9.717252731323242,-0.7226324677467346
1788679050450429000,8.541428955078125,-1.2729816436767578,-9.659825325012207,-0.6843472719192505
1788679050467710000,8.5587099609375,-1.2490534782409668,-9.705288887023926,-0.7082754969596863
1788679050484991200,8.5759912109375,-1.277767300605774,-9.877572059631348,-0.7728816866874695
1788679050502272500,8.5932724609375,-1.3232308626174927,-10.001998901367188,-0.8422735929489136
1788679050519553800,8.6105537109375,-1.2275179624557495,-10.03549861907959,-0.9260223507881165
1788679050536834800,8.627834716796874,-1.1581261157989502,-9.882357597351074,-0.8183453679084778
1788679050554116000,8.6451162109375,-1.1030912399291992,-9.734002113342285,-0.6747759580612183
1788679050571397400,8.6623974609375,-0.9308080077171326,-9.659825325012207,-0.6484549641609192
1788679050588678700,8.6796787109375,-0.7226324677467346,-9.571290969848633,-0.5742774605751038
1788679050605960000,8.6969599609375,-0.5934200286865234,-9.640682220458984,-0.4498506486415863
1788679050623241000,8.714240966796876,-0.4977070987224579,-9.745966911315918,-0.38285163044929504
1788679050640522200,8.731522216796876,-0.4043870270252228,-9.710074424743652,-0.31106695532798767
1788679050657803500,8.748803466796875,-0.5335994362831116,-9.68375301361084,-0.24646073579788208
1788679050675084800,8.766084716796875,-0.5862415432929993,-9.805787086486816,-0.1459621787071228
1788679050692366000,8.783365966796875,-0.605384111404419,-9.963713645935059,-0.07417750358581543
1788679050709647000,8.800647216796875,-0.7920243144035339,-10.001998901367188,-0.10289137065410614
1788679050726928400,8.817928466796875,-0.8087740540504456,-9.963713645935059,-0.16749759018421173
1788679050744209700,8.835209716796875,-0.6867401003837585,-9.973284721374512,-0.22492532432079315
1788679050761491000,8.852490966796875,-0.519242525100708,-10.040284156799316,-0.33020952343940735
1788679050778772000,8.86977197265625,-0.3732803463935852,-10.037891387939453,-0.44745782017707825
1788679050796053200,8.88705322265625,-0.32542386651039124,-9.987641334533691,-0.4905286431312561
1788679050813334500,8.90433447265625,-0.3086741268634796,-9.882357597351074,-0.5288137793540955
1788679050830615800,8.92161572265625,-0.24406790733337402,-9.870393753051758,-0.6125625967979431
1788679050847896800,8.938896728515624,-0.1866401731967926,-9.882357597351074,-0.8327022790908813
1788679050865178000,8.95617822265625,-0.2727817893028259,-9.937392234802246,-1.124626636505127
1788679050882459400,8.97345947265625,-0.3732803463935852,-9.92542839050293,-1.246660590171814
1788679050899740700,8.99074072265625,-0.380458801984787,-9.834501266479492,-1.1868400573730469
1788679050917021700,9.008021728515626,-0.275174617767334,-9.750752449035645,-1.0671988725662231
1788679050934303000,9.025302978515626,-0.37806597352027893,-9.829715728759766,-1.0791629552841187
1788679050951584300,9.042584228515626,-0.5240281820297241,-9.930213928222656,-1.2275179624557495
1788679050968865500,9.059865478515626,-0.5096712112426758,-9.963713645935059,-1.2658032178878784
1788679050986146800,9.077146728515626,-0.5479564070701599,-9.851250648498535,-1.1700903177261353
1788679051003427800,9.094427734375,-0.5479564070701599,-9.8871431350708,-1.074377417564392
1788679051020709000,9.111709228515625,-0.5168496966362,-10.009177207946777,-1.0791629552841187
1788679051037990400,9.128990478515625,-0.605384111404419,-10.126425743103027,-1.1700903177261353
1788679051055271700,9.146271728515625,-0.7513462901115417,-10.176674842834473,-1.3040883541107178
1788679051072552700,9.163552734375,-0.8877372145652771,-10.126425743103027,-1.3639088869094849
1788679051089834000,9.180833984375,-1.0959128141403198,-10.03310489654541,-1.3112667798995972
1788679051107115300,9.198115234375,-1.222732424736023,-9.812965393066406,-1.062413215637207
1788679051124396500,9.215396484375,-1.3495519161224365,-9.595218658447266,-0.8183453679084778
1788679051141677600,9.232677490234375,-1.4572290182113647,-9.53061294555664,-0.7106683254241943
1788679051158958800,9.249958740234375,-1.34476637840271,-9.657432556152344,-0.7130611538887024
1788679051176240000,9.267240234375,-1.2897313833236694,-9.827322959899902,-0.7728816866874695
1788679051193521400,9.284521484375,-1.2299108505249023,-9.970891952514648,-0.9332008361816406
1788679051210802400,9.301802490234374,-1.2370892763137817,-10.068997383117676,-1.0360921621322632
1788679051228083700,9.319083740234374,-1.2179467678070068,-9.944570541381836,-1.0001999139785767
1788679051245365000,9.336364990234374,-1.2562319040298462,-9.877572059631348,-0.8901300430297852
1788679051262646300,9.353646240234376,-1.246660590171814,-9.877572059631348,-0.8111668825149536
1788679051279927300,9.37092724609375,-1.2011969089508057,-9.908679008483887,-0.7920243144035339
1788679051297208600,9.38820849609375,-1.2801600694656372,-9.712467193603516,-0.7130611538887024
1788679051314489900,9.40548974609375,-1.6151553392410278,-9.501898765563965,-0.6532405614852905
1788679051331771000,9.42277099609375,-1.820937991142273,-9.45164966583252,-0.550349235534668
1788679051349052200,9.44005224609375,-1.8424733877182007,-9.561718940734863,-0.5024927258491516
1788679051366333400,9.45733349609375,-1.7778671979904175,-9.755537986755371,-0.45224347710609436
1788679051383614700,9.47461474609375,-1.9286150932312012,-9.93978500366211,-0.3684946894645691
1788679051400895700,9.491895751953125,-2.062613010406494,-9.868000984191895,-0.14356936514377594
1788679051418177000,9.509177001953125,-2.0793628692626953,-9.56650447845459,0.21774685382843018
1788679051435458300,9.526458251953125,-2.407179594039917,-9.332008361816406,0.11964113265275955
1788679051452739600,9.543739501953125,-2.4502503871917725,-9.255437850952148,-0.08614161610603333
1788679051470020900,9.561020751953125,-2.2540390491485596,-9.133403778076172,-0.2153540402650833
1788679051487302000,9.578302001953125,-2.132004976272583,-9.066405296325684,-0.30628129839897156
1788679051504583200,9.595583251953125,-2.1367905139923096,-9.176474571228027,-0.397208571434021
1788679051521864400,9.612864501953124,-2.132004976272583,-9.241081237792969,-0.349352091550827
1788679051539145700,9.630145751953124,-2.0506489276885986,-9.276973724365234,-0.06699903309345245
1788679051556426800,9.6474267578125,-2.03629207611084,-9.32004451751709,0.11006984114646912
1788679051573708000,9.6647080078125,-2.0099709033966064,-9.20279598236084,0.04785645380616188
1788679051590989300,9.6819892578125,-2.251646041870117,-9.150154113769531,0.031106693670153618
1788679051608270300,9.699270263671876,-2.4574289321899414,-9.298508644104004,-0.3517449200153351
1788679051625551600,9.716551513671876,-2.4191436767578125,-9.272188186645508,-0.7369893789291382
1788679051642833000,9.7338330078125,-2.1678972244262695,-9.358329772949219,-0.7082754969596863
1788679051660114200,9.7511142578125,-2.2133610248565674,-9.487542152404785,-0.6005984544754028
1788679051677395200,9.768395263671875,-2.122433662414551,-9.499505996704102,-0.6556333899497986
1788679051694676500,9.785676513671875,-2.251646041870117,-9.391828536987305,-0.5455635786056519
1788679051711957800,9.802957763671875,-2.3401806354522705,-9.403793334960938,-0.30149564146995544
1788679051729238800,9.82023876953125,-1.7850457429885864,-9.272188186645508,-0.10049854964017868
1788679051746520000,9.83752001953125,-1.1341979503631592,-9.265008926391602,-0.5000999569892883
1788679051763801300,9.85480126953125,-1.9980069398880005,-9.133403778076172,-1.3902299404144287
1788679051781082600,9.87208251953125,-2.335394859313965,-9.231510162353516,-1.947757601737976
1788679051798364000,9.889364013671875,-1.9166508913040161,-9.183652877807617,-1.4213366508483887
1788679051815645000,9.90664501953125,-1.210768222808838,-9.154939651489258,-0.8638089895248413
1788679051832926200,9.92392626953125,-1.1485549211502075,-9.116654396057129,-0.8303094506263733
1788679051850207200,9.941207275390624,-1.4333007335662842,-9.212367057800293,-1.1150553226470947
1788679051867488500,9.958488525390624,-1.8233308792114258,-9.719645500183105,-1.3519448041915894
1788679051884769800,9.975769775390624,-2.0865414142608643,-10.712666511535645,-1.2681959867477417
1788679051902051000,9.993051025390624,-2.2779672145843506,-11.820544242858887,-0.9332008361816406
1788679051919332000,10.01033203125,-2.108076810836792,-11.767901420593262,-0.5288137793540955
1788679051936613400,10.02761328125,-1.9716858863830566,-10.466206550598145,-0.4091726839542389
1788679051953894700,10.044894775390626,-1.9405791759490967,-9.592825889587402,-0.6556333899497986
1788679051971176000,10.062176025390626,-1.6271194219589233,-9.456435203552246,-0.698704183101654
1788679051988457000,10.07945703125,-1.4620146751403809,-9.446864128112793,-0.2799602448940277
1788679052005738200,10.09673828125,-0.9332008361816406,-9.812965393066406,0.4211367964744568
1788679052023019500,10.11401953125,-0.6197410821914673,-10.13599681854248,0.6963114142417908
1788679052040300500,10.131300537109375,-0.5814558863639832,-10.126425743103027,0.4043870270252228
1788679052057581800,10.148581787109375,-0.31824541091918945,-9.90149974822998,-0.062213387340307236
1788679052074863000,10.165863037109375,-0.349352091550827,-9.76989459991455,-0.4091726839542389
1788679052092144400,10.183144287109375,-0.5383850932121277,-9.827322959899902,-0.7752745151519775
1788679052109425400,10.20042529296875,-0.3852444589138031,-9.80817985534668,-0.8398807644844055
1788679052126706700,10.217706787109375,-0.15314064919948578,-9.743574142456055,-0.607776939868927
1788679052143988000,10.234988037109375,-0.20817556977272034,-9.76989459991455,-0.4953143000602722
1788679052161269000,10.25226904296875,-0.10289137065410614,-9.791430473327637,-0.2967100143432617
1788679052178550300,10.26955029296875,-0.10049854964017868,-9.93978500366211,-0.0526420995593071
1788679052195831600,10.28683154296875,-0.09571290761232376,-10.047462463378906,0.1339980661869049
1788679052213112800,10.30411279296875,-0.09571290761232376,-10.009177207946777,-0.01196411345154047
1788679052230393900,10.321393798828124,-0.17228323221206665,-9.961320877075195,-0.09810572862625122
1788679052247675100,10.338675048828126,-0.1698904037475586,-9.868000984191895,-0.09092725813388824
1788679052264956200,10.3559560546875,-0.064606212079525,-9.76989459991455,0.15314064919948578
1788679052282237400,10.373237548828126,-0.03349951654672623,-9.753145217895508,0.3517449200153351
1788679052299518700,10.390518798828126,-0.04546362906694412,-9.817750930786133,0.4498506486415863
1788679052316800000,10.407800048828125,-0.12921242415905,-9.899106979370117,0.32542386651039124
1788679052334081000,10.4250810546875,-0.2919243574142456,-9.944570541381836,-0.01196411345154047
1788679052351362300,10.4423623046875,-0.14835500717163086,-9.927821159362793,-0.06939185410737991
1788679052368643600,10.4596435546875,-0.13160525262355804,-9.985248565673828,0.16271193325519562
1788679052385924600,10.476924560546875,0.02632104977965355,-9.944570541381836,0.3445664644241333
1788679052403206000,10.494205810546875,-0.04307080805301666,-9.90149974822998,0.3924229145050049
1788679052420487200,10.511487060546875,-0.20578274130821228,-9.803394317626953,0.2991028428077698
1788679052437768400,10.5287685546875,-0.2847459018230438,-9.848857879638672,0.15553347766399384
1788679052455049500,10.546049560546875,-0.2105683982372284,-9.980463027954102,0.004785645287483931
1788679052472330800,10.563330810546875,0.007178467698395252,-9.889535903930664,-0.1459621787071228
1788679052489612000,10.580612060546875,0.014356935396790504,-9.812965393066406,-0.27756741642951965
1788679052506893000,10.59789306640625,-0.07417750358581543,-9.774680137634277,-0.380458801984787
1788679052524174300,10.61517431640625,-0.15074782073497772,-9.767501831054688,-0.4546363055706024
1788679052541455600,10.63245556640625,-0.1459621787071228,-9.657432556152344,-0.6125625967979431
1788679052558736600,10.649736572265626,-0.18424734473228455,-9.652647018432617,-0.7250252366065979
1788679052576018000,10.667017822265626,0.014356935396790504,-9.58325481414795,-1.1270195245742798
1788679052593299200,10.68429931640625,0.20099709928035736,-10.090533256530762,-1.0815558433532715
1788679052610580200,10.701580322265626,0.20338992774486542,-10.147960662841797,-1.0432707071304321
1788679052627861500,10.718861572265626,0.14117653667926788,-10.126425743103027,-1.0289137363433838
1788679052645142800,10.736142822265625,-0.19381862878799438,-9.963713645935059,-0.8877372145652771
1788679052662423800,10.753423828125,-0.3086741268634796,-9.824930191040039,-0.7010970115661621
1788679052679705000,10.770705078125,-0.18424734473228455,-9.743574142456055,-0.7058826684951782
1788679052696986400,10.787986328125,-0.05742774158716202,-9.68375301361084,-0.672383189201355
1788679052714267600,10.805267578125,-0.06699903309345245,-9.631111145019531,-0.4953143000602722
1788679052731548700,10.822548583984375,-0.20578274130821228,-9.774680137634277,-0.38285163044929504
1788679052748830000,10.839829833984375,-0.28953152894973755,-9.868000984191895,-0.6556333899497986
1788679052766111000,10.857111083984375,-0.24167509377002716,-9.91825008392334,-0.8709874153137207
1788679052783392300,10.874392333984375,-0.40677985548973083,-9.913464546203613,-0.7992027401924133
1788679052800673500,10.891673583984375,-0.3445664644241333,-9.963713645935059,-0.6317051649093628
1788679052817954600,10.90895458984375,-0.2392822653055191,-9.920642852783203,-0.5886343717575073
1788679052835235800,10.92623583984375,-0.13639089465141296,-9.824930191040039,-0.7082754969596863
1788679052852517000,10.94351708984375,-0.16510476171970367,-9.774680137634277,-0.8446664214134216
1788679052869798100,10.960798095703124,-0.25363919138908386,-9.772287368774414,-0.8781659007072449
1788679052887079400,10.978079345703126,-0.2512463629245758,-9.750752449035645,-0.9116654396057129
1788679052904360700,10.995360595703126,-0.1746760457754135,-9.7938232421875,-0.8446664214134216
1788679052921641700,11.012641845703126,-0.09571290761232376,-9.853643417358398,-0.885344386100769
1788679052938923000,11.029923095703126,0.062213387340307236,-9.870393753051758,-0.9092726111412048
1788679052956204300,11.047204345703125,0.06699903309345245,-9.748359680175781,-0.916451096534729
1788679052973485600,11.064485595703125,0.1698904037475586,-9.719645500183105,-0.9379864931106567
1788679052990766600,11.0817666015625,0.16031911969184875,-9.80100154876709,-0.885344386100769
1788679053008047600,11.099047607421875,0.06939185410737991,-9.875179290771484,-0.9451649188995361
1788679053025329000,11.116328857421875,0.06939185410737991,-9.844072341918945,-1.0528420209884644
1788679053042610200,11.133610107421875,0.15074782073497772,-9.76989459991455,-1.1222338676452637
1788679053059891500,11.150891357421875,0.1459621787071228,-9.772287368774414,-1.1078768968582153
1788679053077172500,11.16817236328125,0.1986042857170105,-9.76989459991455,-1.0145567655563354
1788679053094453800,11.185453857421875,0.22492532432079315,-9.853643417358398,-0.8446664214134216
1788679053111735000,11.202735107421875,0.059820566326379776,-9.978070259094238,-0.7848458290100098
1788679053129016000,11.22001611328125,0.04785645380616188,-9.975677490234375,-0.7776673436164856
1788679053146297300,11.23729736328125,-0.01196411345154047,-9.870393753051758,-0.8039883971214294
1788679053163578400,11.254578369140624,-0.09571290761232376,-9.851250648498535,-0.8015955686569214
1788679053180859600,11.271859619140624,-0.15553347766399384,-9.784252166748047,-0.7345965504646301
1788679053198141000,11.289140869140626,-0.07896314561367035,-9.889535903930664,-0.6963114142417908
1788679053215422000,11.306421875,-0.15314064919948578,-10.001998901367188,-0.6699903607368469
1788679053232703200,11.323703125,-0.2847459018230438,-10.01156997680664,-0.7800601720809937
1788679053249984500,11.340984619140626,-0.24885354936122894,-9.884750366210938,-0.8997012972831726
1788679053267265500,11.358265625,0.064606212079525,-9.779465675354004,-0.9020941257476807
1788679053284546800,11.375546875,0.28235307335853577,-9.710074424743652,-0.7728816866874695
1788679053301827800,11.392827880859375,0.32542386651039124,-9.69093132019043,-0.6843472719192505
1788679053319109000,11.410109130859375,0.23688943684101105,-9.755537986755371,-0.6795616149902344
1788679053336390400,11.427390380859375,0.10767702013254166,-9.80100154876709,-0.8039883971214294
1788679053353671400,11.44467138671875,-0.02153540402650833,-9.848857879638672,-0.8805587291717529
1788679053370952700,11.46195263671875,-0.04307080805301666,-9.841679573059082,-0.8614161610603333
1788679053388234000,11.47923388671875,-0.04546362906694412,-9.858428955078125,-0.7968099117279053
1788679053405515000,11.496514892578125,-0.035892341285943985,-9.89432144165039,-0.7250252366065979
1788679053422796300,11.51379638671875,-0.014356935396790504,-9.870393753051758,-0.7106683254241943
1788679053440077300,11.531077392578124,-0.038285162299871445,-9.860821723937988,-0.7513462901115417
1788679053457358600,11.548358642578124,-0.06939185410737991,-9.865608215332031,-0.8183453679084778
1788679053474640000,11.565639892578124,-0.14117653667926788,-9.832108497619629,-0.8733802437782288
1788679053491921000,11.5829208984375,-0.18424734473228455,-9.834501266479492,-0.7992027401924133
1788679053509202200,11.6002021484375,-0.19621145725250244,-9.848857879638672,-0.7082754969596863
1788679053526483500,11.6174833984375,-0.15314064919948578,-9.875179290771484,-0.7250252366065979
1788679053543764500,11.634764404296876,-0.12442677468061447,-9.875179290771484,-0.8087740540504456
1788679053561045800,11.652045654296876,-0.08614161610603333,-9.844072341918945,-0.8781659007072449
1788679053578326800,11.669326904296875,-0.02632104977965355,-9.851250648498535,-0.9092726111412048
1788679053595608000,11.686608154296875,0.016749758273363113,-9.841679573059082,-0.9403793215751648
1788679053612889000,11.70388916015625,0.031106693670153618,-9.796216011047363,-0.9188438653945923
1788679053630170400,11.72117041015625,0.08853443711996078,-9.832108497619629,-0.9882357716560364
1788679053647451600,11.73845166015625,0.09571290761232376,-9.817750930786133,-1.0121639966964722
1788679053664732700,11.755732666015625,0.15074782073497772,-9.858428955078125,-1.0480563640594482
1788679053682014000,11.773013916015625,0.11246266216039658,-9.827322959899902,-1.0432707071304321
1788679053699295200,11.790295166015625,0.11485548317432404,-9.868000984191895,-1.0336993932724
1788679053716576300,11.807576171875,0.10049854964017868,-9.853643417358398,-1.0121639966964722
1788679053733857500,11.824857421875,0.06699903309345245,-9.875179290771484,-1.0097711086273193
1788679053751138600,11.842138671875,0.0023928226437419653,-9.877572059631348,-1.0265209674835205
1788679053768419800,11.859419921875,-0.0933200865983963,-9.875179290771484,-0.9834501147270203
1788679053785700900,11.876700927734374,-0.07896314561367035,-9.93260669708252,-0.916451096534729
1788679053802982100,11.893982177734374,-0.004785645287483931,-9.872786521911621,-0.6891329288482666
1788679053820263400,11.911263427734376,0.24646073579788208,-9.724431037902832,-0.48813581466674805
1788679053837544400,11.92854443359375,0.3756731450557709,-9.702896118164062,-0.5670989751815796
1788679053854825700,11.94582568359375,0.2632105052471161,-9.757930755615234,-0.672383189201355
1788679053872107000,11.96310693359375,0.12442677468061447,-9.829715728759766,-0.6771687865257263
1788679053889388000,11.980387939453125,0.035892341285943985,-9.860821723937988,-0.6221339106559753
1788679053906669300,11.99766943359375,0.031106693670153618,-9.858428955078125,-0.6149554252624512
1788679053923950300,12.014950439453125,-0.062213387340307236,-9.844072341918945,-0.6364908218383789
1788679053941231600,12.032231689453125,-0.16271193325519562,-9.839286804199219,-0.641276478767395
1788679053958512600,12.0495126953125,-0.13878370821475983,-9.872786521911621,-0.6436693072319031
1788679053975794000,12.0667939453125,-0.04785645380616188,-9.860821723937988,-0.6340979933738708
1788679053993075200,12.0840751953125,-0.004785645287483931,-9.832108497619629,-0.6269195079803467
1788679054010356200,12.101356201171875,0.007178467698395252,-9.829715728759766,-0.5718846321105957
1788679054027637500,12.118637451171875,-0.016749758273363113,-9.80100154876709,-0.5862415432929993
1788679054044918500,12.13591845703125,-0.064606212079525,-9.817750930786133,-0.6293123364448547
1788679054062199800,12.15319970703125,-0.12681959569454193,-9.844072341918945,-0.7130611538887024
1788679054079481000,12.170481201171874,-0.15553347766399384,-9.853643417358398,-0.7728816866874695
1788679054096762000,12.18776220703125,-0.16031911969184875,-9.858428955078125,-0.7680960893630981
1788679054114043400,12.20504345703125,-0.17706887423992157,-9.834501266479492,-0.7465606927871704
1788679054131324400,12.222324462890626,-0.16271193325519562,-9.829715728759766,-0.7034898400306702
1788679054148605700,12.239605712890626,-0.17706887423992157,-9.834501266479492,-0.7082754969596863
1788679054165886700,12.25688671875,-0.17946170270442963,-9.836894035339355,-0.7226324677467346
1788679054183168000,12.27416796875,-0.19142581522464752,-9.832108497619629,-0.7130611538887024
1788679054200449000,12.291448974609375,-0.2273181527853012,-9.841679573059082,-0.6652047038078308
1788679054217730300,12.308730224609375,-0.22971096634864807,-9.81535816192627,-0.6269195079803467
1788679054235011600,12.326011474609375,-0.24646073579788208,-9.80817985534668,-0.6269195079803467
1788679054252292600,12.343292724609375,-0.27038896083831787,-9.824930191040039,-0.6771687865257263
1788679054269574000,12.360573974609375,-0.29431718587875366,-9.820143699645996,-0.698704183101654
1788679054286855000,12.37785498046875,-0.24885354936122894,-9.846465110778809,-0.7010970115661621
1788679054304136200,12.39513623046875,-0.2153540402650833,-9.858428955078125,-0.6843472719192505
1788679054321417200,12.412417236328125,-0.1866401731967926,-9.853643417358398,-0.7082754969596863
1788679054338698500,12.429698486328125,-0.17706887423992157,-9.810572624206543,-0.727418065071106
1788679054355979500,12.4469794921875,-0.16271193325519562,-9.781859397888184,-0.7561319470405579
1788679054373260800,12.4642607421875,-0.15553347766399384,-9.779465675354004,-0.7752745151519775
1788679054390542000,12.4815419921875,-0.16031911969184875,-9.798608779907227,-0.7848458290100098
1788679054407823000,12.498822998046874,-0.15314064919948578,-9.829715728759766,-0.7800601720809937
1788679054425104400,12.5161044921875,-0.16749759018421173,-9.846465110778809,-0.7776673436164856
1788679054442385400,12.533385498046876,-0.16749759018421173,-9.856036186218262,-0.7680960893630981
1788679054459666700,12.550666748046876,-0.15553347766399384,-9.863214492797852,-0.7657032608985901
1788679054476947700,12.56794775390625,-0.14356936514377594,-9.856036186218262,-0.7800601720809937
1788679054494229000,12.58522900390625,-0.12442677468061447,-9.834501266479492,-0.7896314859390259
1788679054511510000,12.602510009765625,-0.12681959569454193,-9.80817985534668,-0.7896314859390259
1788679054528791300,12.619791259765625,-0.14117653667926788,-9.817750930786133,-0.7872386574745178
1788679054546072300,12.637072265625,-0.13160525262355804,-9.822537422180176,-0.7585247755050659
1788679054563353600,12.654353515625,-0.12442677468061447,-9.832108497619629,-0.7441678643226624
1788679054580634600,12.671634521484375,-0.11246266216039658,-9.827322959899902,-0.7345965504646301
1788679054597916000,12.688916015625,-0.16271193325519562,-9.812965393066406,-0.7513462901115417
1788679054615197000,12.706197021484375,-0.2225325107574463,-9.80100154876709,-0.7585247755050659
1788679054632478200,12.723478271484375,-0.22492532432079315,-9.834501266479492,-0.7058826684951782
1788679054649759500,12.740759521484375,-0.2153540402650833,-9.822537422180176,-0.6460621356964111
1788679054667040500,12.75804052734375,-0.20099709928035736,-9.836894035339355,-0.6699903607368469
1788679054684321800,12.77532177734375,-0.20338992774486542,-9.889535903930664,-0.7178468108177185
1788679054701602800,12.792602783203124,-0.16031911969184875,-9.89432144165039,-0.794417142868042
1788679054718884000,12.809884033203126,-0.1818545162677765,-9.961320877075195,-0.9475577473640442
1788679054736165000,12.8271650390625,-0.1579262912273407,-9.944570541381836,-0.97148597240448
1788679054753446400,12.8444462890625,-0.04785645380616188,-9.817750930786133,-0.7657032608985901
1788679054770727400,12.8617275390625,0.10049854964017868,-9.729216575622559,-0.6340979933738708
1788679054788008400,12.879008544921875,0.12203395366668701,-9.753145217895508,-0.6891329288482666
1788679054805289700,12.896289794921875,0.064606212079525,-9.7938232421875,-0.7968099117279053
1788679054822571000,12.913571044921875,-0.007178467698395252,-9.796216011047363,-0.8159525394439697
1788679054839852000,12.93085205078125,-0.035892341285943985,-9.791430473327637,-0.7465606927871704
1788679054857133300,12.94813330078125,-0.08135596662759781,-9.829715728759766,-0.7202396392822266
1788679054874414300,12.965414306640625,-0.11246266216039658,-9.81535816192627,-0.6963114142417908
1788679054891695600,12.982695556640625,-0.13878370821475983,-9.829715728759766,-0.6675975322723389
1788679054908976600,12.9999765625,-0.11485548317432404,-9.848857879638672,-0.638883650302887
1788679054926258000,13.0172578125,-0.11724831163883209,-9.817750930786133,-0.6340979933738708
1788679054943539000,13.0345390625,-0.11724831163883209,-9.822537422180176,-0.6197410821914673
1788679054960820200,13.0518203125,-0.10049854964017868,-9.832108497619629,-0.6436693072319031
1788679054978101200,13.069101318359374,-0.09810572862625122,-9.836894035339355,-0.6867401003837585
1788679054995382500,13.086382568359374,-0.10289137065410614,-9.839286804199219,-0.7058826684951782
1788679055012663800,13.103663818359376,-0.10289137065410614,-9.824930191040039,-0.7393822073936462
1788679055029944800,13.12094482421875,-0.11485548317432404,-9.829715728759766,-0.7896314859390259
1788679055047225900,13.138225830078126,-0.11246266216039658,-9.846465110778809,-0.8470591902732849
1788679055064507100,13.155507080078126,-0.07417750358581543,-9.868000984191895,-0.8901300430297852
1788679055081788200,13.1727880859375,-0.0526420995593071,-9.863214492797852,-0.9308080077171326
1788679055099069400,13.1900693359375,-0.038285162299871445,-9.858428955078125,-0.9116654396057129
1788679055116350500,13.2073505859375,-0.02153540402650833,-9.856036186218262,-0.8662018179893494
1788679055133631700,13.2246318359375,-0.031106693670153618,-9.827322959899902,-0.8350951075553894
1788679055150912800,13.241912841796875,-0.040677983313798904,-9.827322959899902,-0.8039883971214294
1788679055168194000,13.259194091796875,-0.014356935396790504,-9.810572624206543,-0.8087740540504456
1788679055185475000,13.27647509765625,-0.009571290574967861,-9.836894035339355,-0.7800601720809937
1788679055202756400,13.29375634765625,-0.03349951654672623,-9.834501266479492,-0.763310432434082
1788679055220037400,13.311037353515625,-0.05742774158716202,-9.856036186218262,-0.7561319470405579
1788679055237318700,13.328318603515624,-0.059820566326379776,-9.829715728759766,-0.7537391185760498
1788679055254599700,13.345599609375,-0.062213387340307236,-9.836894035339355,-0.7704889178276062
1788679055271881000,13.362880859375,-0.062213387340307236,-9.844072341918945,-0.8015955686569214
1788679055289162000,13.380161865234374,-0.0526420995593071,-9.822537422180176,-0.7992027401924133
1788679055306443300,13.397443359375,-0.040677983313798904,-9.812965393066406,-0.7968099117279053
1788679055323724300,13.414724365234376,-0.06939185410737991,-9.805787086486816,-0.7968099117279053
1788679055341005600,13.432005615234376,-0.05503492057323456,-9.839286804199219,-0.8015955686569214
1788679055358286600,13.44928662109375,-0.05024927482008934,-9.860821723937988,-0.7872386574745178
1788679055375567600,13.466567626953125,-0.09092725813388824,-9.856036186218262,-0.7920243144035339
1788679055392849000,13.483848876953125,-0.09092725813388824,-9.844072341918945,-0.7896314859390259
1788679055410130000,13.5011298828125,-0.09810572862625122,-9.822537422180176,-0.7776673436164856
1788679055427411200,13.5184111328125,-0.11006984114646912,-9.822537422180176,-0.7800601720809937
1788679055444692200,13.535692138671875,-0.08853443711996078,-9.834501266479492,-0.7704889178276062
1788679055461973500,13.552973388671875,-0.0526420995593071,-9.844072341918945,-0.760917603969574
1788679055479254500,13.570254638671875,-0.031106693670153618,-9.841679573059082,-0.760917603969574
1788679055496535800,13.587535888671875,-0.04546362906694412,-9.832108497619629,-0.7992027401924133
1788679055513816800,13.60481689453125,-0.05024927482008934,-9.820143699645996,-0.8231309652328491
1788679055531098000,13.62209814453125,-0.06699903309345245,-9.820143699645996,-0.8374879360198975
1788679055548379100,13.639379150390624,-0.059820566326379776,-9.836894035339355,-0.8111668825149536
1788679055565660400,13.656660400390624,-0.062213387340307236,-9.853643417358398,-0.7752745151519775
1788679055582941400,13.67394140625,-0.04307080805301666,-9.851250648498535,-0.7752745151519775
1788679055600222700,13.69122265625,-0.038285162299871445,-9.844072341918945,-0.7968099117279053
1788679055617503700,13.708503662109376,-0.038285162299871445,-9.829715728759766,-0.7872386574745178
1788679055634785000,13.725784912109376,-0.031106693670153618,-9.824930191040039,-0.7920243144035339
1788679055652066000,13.743066162109375,-0.04785645380616188,-9.832108497619629,-0.7752745151519775
1788679055669347300,13.760347412109375,-0.064606212079525,-9.836894035339355,-0.7800601720809937
1788679055686628400,13.77762841796875,-0.0526420995593071,-9.817750930786133,-0.7896314859390259
1788679055703909600,13.79490966796875,-0.05024927482008934,-9.805787086486816,-0.7800601720809937
1788679055721190700,13.812190673828125,-0.064606212079525,-9.81535816192627,-0.763310432434082
1788679055738471700,13.8294716796875,-0.05024927482008934,-9.844072341918945,-0.7537391185760498
1788679055755753000,13.8467529296875,-0.02632104977965355,-9.841679573059082,-0.7776673436164856
1788679055773034000,13.864033935546875,-0.04785645380616188,-9.841679573059082,-0.8374879360198975
1788679055790315300,13.881315185546875,-0.035892341285943985,-9.839286804199219,-0.8303094506263733
1788679055807596300,13.89859619140625,-0.0526420995593071,-9.836894035339355,-0.7585247755050659
1788679055824877300,13.915877197265624,-0.08853443711996078,-9.822537422180176,-0.760917603969574
1788679055842158600,13.93315869140625,-0.09092725813388824,-9.820143699645996,-0.7704889178276062
1788679055859439600,13.950439697265624,-0.08853443711996078,-9.827322959899902,-0.7561319470405579
1788679055876721000,13.967720947265626,-0.06939185410737991,-9.856036186218262,-0.760917603969574
1788679055894002000,13.985001953125,-0.08135596662759781,-9.841679573059082,-0.7393822073936462
1788679055911283000,14.002282958984376,-0.11006984114646912,-9.839286804199219,-0.7130611538887024
1788679055928564200,14.019564208984375,-0.10767702013254166,-9.832108497619629,-0.698704183101654
1788679055945845200,14.03684521484375,-0.14356936514377594,-9.829715728759766,-0.7250252366065979
1788679055963126500,14.05412646484375,-0.12921242415905,-9.858428955078125,-0.7393822073936462
1788679055980407600,14.071407470703125,-0.09571290761232376,-9.865608215332031,-0.7920243144035339
1788679055997688800,14.088688720703125,-0.08135596662759781,-9.865608215332031,-0.8159525394439697
1788679056014969900,14.105969970703125,-0.059820566326379776,-9.844072341918945,-0.8231309652328491
1788679056032251100,14.123251220703125,-0.04307080805301666,-9.839286804199219,-0.8446664214134216
1788679056049532200,14.1405322265625,-0.07178468257188797,-9.820143699645996,-0.8446664214134216
1788679056066813400,14.1578134765625,-0.07178468257188797,-9.822537422180176,-0.7896314859390259
1788679056084094500,14.175094482421875,-0.06699903309345245,-9.803394317626953,-0.7441678643226624
1788679056101375500,14.19237548828125,-0.08853443711996078,-9.812965393066406,-0.729810893535614
1788679056118656800,14.20965673828125,-0.09571290761232376,-9.820143699645996,-0.7345965504646301
1788679056135937800,14.226937744140624,-0.11485548317432404,-9.829715728759766,-0.729810893535614
1788679056153219000,14.244218994140626,-0.10049854964017868,-9.875179290771484,-0.727418065071106
1788679056170500000,14.2615,-0.11485548317432404,-9.868000984191895,-0.7250252366065979
1788679056187781000,14.278781005859376,-0.12921242415905,-9.846465110778809,-0.6939185857772827
1788679056205062400,14.2960625,-0.14835500717163086,-9.848857879638672,-0.6819544434547424
1788679056222343400,14.313343505859375,-0.16031911969184875,-9.841679573059082,-0.6963114142417908
1788679056239624700,14.330624755859375,-0.13639089465141296,-9.858428955078125,-0.7058826684951782
1788679056256905700,14.34790576171875,-0.11724831163883209,-9.848857879638672,-0.6795616149902344
1788679056274187000,14.36518701171875,-0.07896314561367035,-9.817750930786133,-0.6436693072319031
1788679056291468000,14.382468017578125,-0.064606212079525,-9.789037704467773,-0.607776939868927
1788679056308749300,14.399749267578125,-0.016749758273363113,-9.846465110778809,-0.6245267391204834
1788679056326030300,14.4170302734375,0.004785645287483931,-9.860821723937988,-0.672383189201355
1788679056343311400,14.434311279296875,-0.03349951654672623,-9.844072341918945,-0.6747759580612183
1788679056360592600,14.451592529296875,-0.08374879509210587,-9.81535816192627,-0.6771687865257263
1788679056377873700,14.468873779296874,-0.13639089465141296,-9.803394317626953,-0.6364908218383789
1788679056395155000,14.486155029296874,-0.1818545162677765,-9.824930191040039,-0.638883650302887
1788679056412436000,14.50343603515625,-0.19621145725250244,-9.875179290771484,-0.605384111404419
1788679056429717000,14.520717041015626,-0.20338992774486542,-9.865608215332031,-0.5551348328590393
1788679056446998300,14.537998291015626,-0.19381862878799438,-9.836894035339355,-0.5359922647476196
1788679056464279300,14.555279296875,-0.20817556977272034,-9.817750930786133,-0.5383850932121277
1788679056481560600,14.572560546875,-0.17706887423992157,-9.805787086486816,-0.5575276613235474
1788679056498841600,14.589841552734375,-0.1746760457754135,-9.803394317626953,-0.6125625967979431
1788679056516122600,14.60712255859375,-0.18424734473228455,-9.822537422180176,-0.641276478767395
1788679056533404000,14.62440380859375,-0.1866401731967926,-9.839286804199219,-0.6747759580612183
1788679056550685000,14.641684814453125,-0.2153540402650833,-9.834501266479492,-0.6963114142417908
1788679056567966000,14.658966064453125,-0.2584248483181,-9.841679573059082,-0.7106683254241943
1788679056585247200,14.676247314453125,-0.2512463629245758,-9.846465110778809,-0.7154539823532104
1788679056602528300,14.6935283203125,-0.24167509377002716,-9.846465110778809,-0.7202396392822266
1788679056619809500,14.7108095703125,-0.2105683982372284,-9.829715728759766,-0.7322037220001221
1788679056637090600,14.728090576171875,-0.20338992774486542,-9.827322959899902,-0.7178468108177185
1788679056654371600,14.74537158203125,-0.20099709928035736,-9.841679573059082,-0.6939185857772827
1788679056671652900,14.76265283203125,-0.19381862878799438,-9.844072341918945,-0.6891329288482666
1788679056688934000,14.779933837890624,-0.20338992774486542,-9.820143699645996,-0.6699903607368469
1788679056706215000,14.79721484375,-0.20817556977272034,-9.829715728759766,-0.6580262184143066
1788679056723496200,14.81449609375,-0.24167509377002716,-9.796216011047363,-0.6771687865257263
1788679056740777200,14.831777099609376,-0.2679961323738098,-9.822537422180176,-0.6604190468788147
1788679056758058500,14.84905859375,-0.27038896083831787,-9.827322959899902,-0.6460621356964111
1788679056775339500,14.866339599609375,-0.22492532432079315,-9.834501266479492,-0.641276478767395
1788679056792620500,14.88362060546875,-0.22492532432079315,-9.829715728759766,-0.6364908218383789
1788679056809901800,14.90090185546875,-0.23449662327766418,-9.824930191040039,-0.6460621356964111
1788679056827182800,14.918182861328125,-0.2392822653055191,-9.834501266479492,-0.6675975322723389
1788679056844464000,14.935464111328125,-0.23210379481315613,-9.829715728759766,-0.6867401003837585
1788679056861745200,14.9527451171875,-0.24406790733337402,-9.836894035339355,-0.7130611538887024
1788679056879026200,14.970026123046875,-0.22971096634864807,-9.832108497619629,-0.7202396392822266
1788679056896307500,14.987307373046875,-0.22013968229293823,-9.836894035339355,-0.7226324677467346
1788679056913588500,15.00458837890625,-0.19621145725250244,-9.841679573059082,-0.7322037220001221
1788679056930869500,15.021869384765624,-0.15314064919948578,-9.836894035339355,-0.7489534616470337
1788679056948150800,15.03915087890625,-0.15074782073497772,-9.836894035339355,-0.7752745151519775
1788679056965431800,15.056431884765624,-0.16749759018421173,-9.822537422180176,-0.7680960893630981
1788679056982713000,15.073713134765624,-0.1579262912273407,-9.829715728759766,-0.7465606927871704
1788679056999994000,15.090994140625,-0.16510476171970367,-9.827322959899902,-0.729810893535614
1788679057017275100,15.108275146484376,-0.16271193325519562,-9.820143699645996,-0.7154539823532104
1788679057034556400,15.125556396484376,-0.16271193325519562,-9.827322959899902,-0.7250252366065979
1788679057051837400,15.14283740234375,-0.1579262912273407,-9.834501266479492,-0.7441678643226624
1788679057069118500,15.160118408203125,-0.1698904037475586,-9.846465110778809,-0.7393822073936462
1788679057086399700,15.177399658203125,-0.14835500717163086,-9.856036186218262,-0.7322037220001221
1788679057103680800,15.1946806640625,-0.15074782073497772,-9.858428955078125,-0.727418065071106
1788679057120961800,15.2119619140625,-0.14835500717163086,-9.851250648498535,-0.7369893789291382
1788679057138243000,15.2292431640625,-0.12681959569454193,-9.829715728759766,-0.7441678643226624
1788679057155524000,15.246524169921875,-0.11006984114646912,-9.836894035339355,-0.7489534616470337
1788679057172805000,15.26380517578125,-0.09571290761232376,-9.824930191040039,-0.7585247755050659
1788679057190086400,15.28108642578125,-0.0933200865983963,-9.81535816192627,-0.7585247755050659
1788679057207367400,15.298367431640624,-0.09571290761232376,-9.81535816192627,-0.760917603969574
1788679057224648700,15.315648681640624,-0.0933200865983963,-9.832108497619629,-0.7537391185760498
1788679057241929700,15.3329296875,-0.1052841991186142,-9.829715728759766,-0.7728816866874695
1788679057259210800,15.350210693359376,-0.09810572862625122,-9.839286804199219,-0.7848458290100098
1788679057276492000,15.367491943359376,-0.1052841991186142,-9.841679573059082,-0.7704889178276062
1788679057293773000,15.38477294921875,-0.11246266216039658,-9.839286804199219,-0.7561319470405579
1788679057311054000,15.40205419921875,-0.11724831163883209,-9.829715728759766,-0.7369893789291382
1788679057328335400,15.41933544921875,-0.14117653667926788,-9.803394317626953,-0.7345965504646301
1788679057345616400,15.436616455078125,-0.1579262912273407,-9.810572624206543,-0.7034898400306702
1788679057362897400,15.4538974609375,-0.16031911969184875,-9.829715728759766,-0.6795616149902344
1788679057380178700,15.4711787109375,-0.17706887423992157,-9.858428955078125,-0.6747759580612183
1788679057397459700,15.488459716796875,-0.15314064919948578,-9.860821723937988,-0.6795616149902344
1788679057414741000,15.505740966796875,-0.1459621787071228,-9.856036186218262,-0.7250252366065979
1788679057432022000,15.52302197265625,-0.12921242415905,-9.851250648498535,-0.760917603969574
1788679057449303000,15.540302978515625,-0.11246266216039658,-9.846465110778809,-0.7680960893630981
1788679057466584300,15.557584228515625,-0.10767702013254166,-9.844072341918945,-0.7800601720809937
1788679057483865300,15.574865234375,-0.09092725813388824,-9.832108497619629,-0.7824530005455017
1788679057501146400,15.592146484375,-0.08374879509210587,-9.817750930786133,-0.7848458290100098
1788679057518427400,15.609427490234374,-0.07178468257188797,-9.829715728759766,-0.7776673436164856
1788679057535708700,15.626708740234376,-0.08135596662759781,-9.827322959899902,-0.7417750358581543
1788679057552989700,15.64398974609375,-0.08853443711996078,-9.81535816192627,-0.7417750358581543
1788679057570270700,15.661270751953126,-0.08614161610603333,-9.851250648498535,-0.7561319470405579
1788679057587552000,15.678552001953125,-0.09092725813388824,-9.846465110778809,-0.7776673436164856
1788679057604833000,15.6958330078125,-0.08853443711996078,-9.844072341918945,-0.763310432434082
1788679057622114000,15.713114013671875,-0.09810572862625122,-9.848857879638672,-0.7441678643226624
1788679057639395300,15.730395263671875,-0.09571290761232376,-9.836894035339355,-0.7369893789291382
1788679057656676400,15.74767626953125,-0.11485548317432404,-9.824930191040039,-0.6939185857772827
1788679057673957400,15.764957275390625,-0.13160525262355804,-9.817750930786133,-0.6843472719192505
1788679057691238700,15.78223876953125,-0.11006984114646912,-9.81535816192627,-0.672383189201355
1788679057708519700,15.799519775390625,-0.10767702013254166,-9.824930191040039,-0.6795616149902344
1788679057725800700,15.81680078125,-0.0933200865983963,-9.844072341918945,-0.6771687865257263
1788679057743082000,15.83408203125,-0.09810572862625122,-9.834501266479492,-0.6795616149902344
1788679057760363000,15.851363037109374,-0.09810572862625122,-9.839286804199219,-0.6915257573127747
1788679057777644000,15.86864404296875,-0.10767702013254166,-9.836894035339355,-0.7034898400306702
1788679057794925000,15.885925048828126,-0.11246266216039658,-9.860821723937988,-0.7082754969596863
1788679057812206300,15.903206298828126,-0.11006984114646912,-9.858428955078125,-0.7058826684951782
1788679057829487400,15.9204873046875,-0.11485548317432404,-9.839286804199219,-0.7178468108177185
1788679057846768400,15.937768310546875,-0.09571290761232376,-9.829715728759766,-0.7010970115661621
1788679057864049400,15.95504931640625,-0.08374879509210587,-9.820143699645996,-0.6963114142417908
1788679057881330700,15.97233056640625,-0.10049854964017868,-9.832108497619629,-0.6963114142417908
1788679057898611700,15.98961181640625,-0.10289137065410614,-9.853643417358398,-0.6843472719192505
1788679057915892700,16.006892822265623,-0.08374879509210587,-9.841679573059082,-0.6771687865257263
1788679057933174000,16.024174072265627,-0.10289137065410614,-9.839286804199219,-0.7010970115661621
1788679057950455000,16.041455078125,-0.0933200865983963,-9.841679573059082,-0.7130611538887024
1788679057967736000,16.058736083984375,-0.09571290761232376,-9.817750930786133,-0.6963114142417908
1788679057985017300,16.076017333984375,-0.11006984114646912,-9.832108497619629,-0.6891329288482666
1788679058002298400,16.09329833984375,-0.11006984114646912,-9.844072341918945,-0.6747759580612183
1788679058019579400,16.110579345703126,-0.12203395366668701,-9.829715728759766,-0.6747759580612183
1788679058036860700,16.127860595703126,-0.13160525262355804,-9.827322959899902,-0.6675975322723389
1788679058054141700,16.1451416015625,-0.11485548317432404,-9.841679573059082,-0.6675975322723389
1788679058071422700,16.162422607421874,-0.12921242415905,-9.839286804199219,-0.6771687865257263
1788679058088704000,16.1797041015625,-0.09810572862625122,-9.858428955078125,-0.6819544434547424
1788679058105985000,16.196985107421874,-0.08853443711996078,-9.844072341918945,-0.6915257573127747
1788679058123266000,16.21426611328125,-0.10767702013254166,-9.848857879638672,-0.698704183101654
1788679058140547000,16.231547119140625,-0.07417750358581543,-9.863214492797852,-0.7106683254241943
1788679058157828400,16.248828369140625,-0.09810572862625122,-9.858428955078125,-0.7369893789291382
1788679058175109400,16.266109375,-0.11246266216039658,-9.80100154876709,-0.7178468108177185
1788679058192390400,16.283390380859377,-0.07657032459974289,-9.784252166748047,-0.6317051649093628
1788679058209671400,16.30067138671875,-0.05503492057323456,-9.767501831054688,-0.6221339106559753
1788679058226952700,16.31795263671875,-0.059820566326379776,-9.767501831054688,-0.6460621356964111
1788679058244233700,16.335233642578125,-0.035892341285943985,-9.872786521911621,-0.6675975322723389
1788679058261514800,16.3525146484375,-0.02153540402650833,-9.908679008483887,-0.6819544434547424
1788679058278795800,16.369795654296876,-0.10049854964017868,-9.856036186218262,-0.638883650302887
1788679058296077000,16.3870771484375,-0.16749759018421173,-9.827322959899902,-0.5934200286865234
1788679058313358000,16.404358154296876,-0.19621145725250244,-9.846465110778809,-0.5694918036460876
1788679058330639000,16.42163916015625,-0.21296121180057526,-9.860821723937988,-0.5934200286865234
1788679058347920100,16.438920166015624,-0.19621145725250244,-9.865608215332031,-0.5886343717575073
1788679058365201400,16.456201416015624,-0.17228323221206665,-9.868000984191895,-0.6173482537269592
1788679058382482400,16.473482421875,-0.1579262912273407,-9.839286804199219,-0.6005984544754028
1788679058399763500,16.490763427734375,-0.17228323221206665,-9.820143699645996,-0.5958128571510315
1788679058417044700,16.508044677734375,-0.15074782073497772,-9.817750930786133,-0.5982056856155396
1788679058434325800,16.52532568359375,-0.15314064919948578,-9.824930191040039,-0.6221339106559753
1788679058451606800,16.542606689453127,-0.1459621787071228,-9.836894035339355,-0.6795616149902344
1788679058468887800,16.5598876953125,-0.16031911969184875,-9.841679573059082,-0.7178468108177185
1788679058486169000,16.577169189453127,-0.16031911969184875,-9.844072341918945,-0.729810893535614
1788679058503450000,16.5944501953125,-0.16031911969184875,-9.836894035339355,-0.7106683254241943
1788679058520731100,16.611731201171875,-0.13878370821475983,-9.81535816192627,-0.7082754969596863
1788679058538012200,16.62901220703125,-0.10289137065410614,-9.812965393066406,-0.727418065071106
1788679058555293200,16.646293212890626,-0.09092725813388824,-9.856036186218262,-0.7680960893630981
1788679058572574500,16.663574462890626,-0.05503492057323456,-9.903892517089844,-0.7513462901115417
1788679058589855500,16.68085546875,-0.10767702013254166,-9.851250648498535,-0.6891329288482666
1788679058607136500,16.698136474609374,-0.18424734473228455,-9.812965393066406,-0.6101697683334351
1788679058624417500,16.71541748046875,-0.21774685382843018,-9.803394317626953,-0.5982056856155396
1788679058641698600,16.732698486328125,-0.2225325107574463,-9.832108497619629,-0.6101697683334351
1788679058658979800,16.749979736328125,-0.2632105052471161,-9.865608215332031,-0.6221339106559753
1788679058676260900,16.7672607421875,-0.22971096634864807,-9.860821723937988,-0.605384111404419
1788679058693542000,16.7845419921875,-0.22492532432079315,-9.846465110778809,-0.6317051649093628
1788679058710823200,16.8018232421875,-0.19381862878799438,-9.832108497619629,-0.6005984544754028
1788679058728104200,16.819104248046877,-0.19621145725250244,-9.822537422180176,-0.6460621356964111
1788679058745385200,16.83638525390625,-0.18903298676013947,-9.834501266479492,-0.7058826684951782
1788679058762666200,16.853666259765625,-0.18424734473228455,-9.834501266479492,-0.7537391185760498
1788679058779947500,16.870947509765625,-0.16031911969184875,-9.846465110778809,-0.7728816866874695
1788679058797228500,16.888228515625,-0.16749759018421173,-9.832108497619629,-0.7848458290100098
1788679058814509600,16.905509521484376,-0.1746760457754135,-9.827322959899902,-0.7322037220001221
1788679058831790600,16.92279052734375,-0.17946170270442963,-9.829715728759766,-0.6867401003837585
1788679058849071600,16.940071533203124,-0.18424734473228455,-9.839286804199219,-0.7058826684951782
1788679058866353000,16.957352783203124,-0.16031911969184875,-9.858428955078125,-0.7154539823532104
1788679058883634000,16.974634033203124,-0.1579262912273407,-9.822537422180176,-0.7250252366065979
1788679058900915000,16.9919150390625,-0.1746760457754135,-9.834501266479492,-0.698704183101654
1788679058918196000,17.009196044921875,-0.19142581522464752,-9.839286804199219,-0.6771687865257263
1788679058935477000,17.02647705078125,-0.23210379481315613,-9.822537422180176,-0.6173482537269592
1788679058952758300,17.04375830078125,-0.2584248483181,-9.820143699645996,-0.5886343717575073
1788679058970039300,17.061039306640627,-0.25363919138908386,-9.817750930786133,-0.5934200286865234
1788679058987320300,17.0783203125,-0.2273181527853012,-9.839286804199219,-0.6101697683334351
1788679059004601600,17.0956015625,-0.1986042857170105,-9.836894035339355,-0.641276478767395
1788679059021882600,17.112882568359375,-0.17228323221206665,-9.863214492797852,-0.641276478767395
1788679059039163600,17.13016357421875,-0.16749759018421173,-9.863214492797852,-0.6795616149902344
1788679059056444700,17.147444580078126,-0.1698904037475586,-9.836894035339355,-0.7058826684951782
1788679059073725700,17.1647255859375,-0.16749759018421173,-9.841679573059082,-0.672383189201355
1788679059091006700,17.1820068359375,-0.14835500717163086,-9.846465110778809,-0.672383189201355
1788679059108288000,17.1992880859375,-0.16749759018421173,-9.820143699645996,-0.6556333899497986
1788679059125569000,17.216569091796874,-0.15314064919948578,-9.817750930786133,-0.6364908218383789
1788679059142850000,17.23385009765625,-0.12921242415905,-9.820143699645996,-0.5958128571510315
1788679059160131000,17.251131103515625,-0.14117653667926788,-9.865608215332031,-0.638883650302887
1788679059177412000,17.268412109375,-0.13639089465141296,-9.870393753051758,-0.6293123364448547
1788679059194693400,17.285693359375,-0.13639089465141296,-9.844072341918945,-0.6101697683334351
1788679059211974400,17.302974365234373,-0.14835500717163086,-9.822537422180176,-0.5790630578994751
1788679059229255400,17.32025537109375,-0.15074782073497772,-9.824930191040039,-0.5455635786056519
1788679059246536400,17.337536376953125,-0.11246266216039658,-9.820143699645996,-0.5718846321105957
1788679059263817500,17.3548173828125,-0.11485548317432404,-9.844072341918945,-0.6125625967979431
1788679059281098800,17.3720986328125,-0.12921242415905,-9.856036186218262,-0.6317051649093628
1788679059298379800,17.3893798828125,-0.15553347766399384,-9.846465110778809,-0.638883650302887
1788679059315660800,17.406660888671876,-0.16510476171970367,-9.846465110778809,-0.6340979933738708
1788679059332941800,17.42394189453125,-0.15314064919948578,-9.834501266479492,-0.6556333899497986
1788679059350222800,17.441222900390624,-0.16031911969184875,-9.834501266479492,-0.672383189201355
1788679059367504000,17.45850390625,-0.1052841991186142,-9.851250648498535,-0.641276478767395
1788679059384785200,17.47578515625,-0.11006984114646912,-9.848857879638672,-0.6532405614852905
1788679059402066200,17.493066162109375,-0.12442677468061447,-9.844072341918945,-0.6652047038078308
1788679059419347200,17.51034716796875,-0.11246266216039658,-9.853643417358398,-0.6436693072319031
1788679059436628200,17.527628173828123,-0.12203395366668701,-9.827322959899902,-0.6221339106559753
1788679059453909500,17.544909423828123,-0.14356936514377594,-9.81535816192627,-0.6604190468788147
1788679059471190500,17.5621904296875,-0.12203395366668701,-9.844072341918945,-0.6628118753433228
1788679059488471600,17.579471435546875,-0.12203395366668701,-9.856036186218262,-0.6580262184143066
1788679059505752600,17.596752685546875,-0.13878370821475983,-9.836894035339355,-0.6364908218383789
1788679059523033600,17.61403369140625,-0.15074782073497772,-9.832108497619629,-0.6173482537269592
1788679059540314600,17.631314697265626,-0.16271193325519562,-9.796216011047363,-0.6771687865257263
1788679059557595600,17.648595703125,-0.17706887423992157,-9.810572624206543,-0.7106683254241943
1788679059574877000,17.665876953125,-0.12921242415905,-9.858428955078125,-0.6747759580612183
1788679059592158000,17.683157958984374,-0.14117653667926788,-9.870393753051758,-0.6364908218383789
1788679059609439000,17.70043896484375,-0.15553347766399384,-9.839286804199219,-0.641276478767395
1788679059626720000,17.717719970703126,-0.17706887423992157,-9.839286804199219,-0.6675975322723389
1788679059644001000,17.7350009765625,-0.16271193325519562,-9.856036186218262,-0.6699903607368469
1788679059661282300,17.7522822265625,-0.15553347766399384,-9.853643417358398,-0.6795616149902344
1788679059678563300,17.769563232421874,-0.12921242415905,-9.832108497619629,-0.6891329288482666
1788679059695844400,17.78684423828125,-0.11724831163883209,-9.832108497619629,-0.6795616149902344
1788679059713125400,17.80412548828125,-0.1339980661869049,-9.810572624206543,-0.7058826684951782
1788679059730406400,17.821406494140625,-0.1459621787071228,-9.820143699645996,-0.7465606927871704
1788679059747687400,17.8386875,-0.14117653667926788,-9.832108497619629,-0.7513462901115417
1788679059764968400,17.855968505859376,-0.1339980661869049,-9.841679573059082,-0.7082754969596863
1788679059782249700,17.873249755859376,-0.17228323221206665,-9.848857879638672,-0.6867401003837585
1788679059799530800,17.89053076171875,-0.17228323221206665,-9.820143699645996,-0.7082754969596863
1788679059816811800,17.907811767578124,-0.15553347766399384,-9.839286804199219,-0.6891329288482666
1788679059834092800,17.9250927734375,-0.14117653667926788,-9.875179290771484,-0.6532405614852905
1788679059851373800,17.942373779296876,-0.1339980661869049,-9.848857879638672,-0.6173482537269592
1788679059868654800,17.95965478515625,-0.16510476171970367,-9.834501266479492,-0.672383189201355
1788679059885935900,17.976935791015624,-0.16271193325519562,-9.860821723937988,-0.6771687865257263
1788679059903217200,17.994217041015624,-0.1579262912273407,-9.836894035339355,-0.6556333899497986
1788679059920498200,18.011498291015624,-0.15553347766399384,-9.841679573059082,-0.6317051649093628
1788679059937779200,18.028779296875,-0.13639089465141296,-9.832108497619629,-0.6484549641609192
1788679059955060200,18.046060302734375,-0.1459621787071228,-9.827322959899902,-0.6604190468788147
1788679059972341200,18.06334130859375,-0.13160525262355804,-9.81535816192627,-0.6747759580612183
1788679059989622500,18.08062255859375,-0.13160525262355804,-9.829715728759766,-0.6747759580612183
1788679060006903600,18.097903564453127,-0.12921242415905,-9.832108497619629,-0.6747759580612183
1788679060024184600,18.1151845703125,-0.13639089465141296,-9.836894035339355,-0.6771687865257263
1788679060041465600,18.132465576171874,-0.13639089465141296,-9.822537422180176,-0.698704183101654
1788679060058746600,18.14974658203125,-0.16510476171970367,-9.822537422180176,-0.7034898400306702
1788679060076027600,18.167027587890626,-0.14356936514377594,-9.841679573059082,-0.6867401003837585
1788679060093308700,18.18430859375,-0.16749759018421173,-9.851250648498535,-0.6436693072319031
1788679060110590000,18.20158984375,-0.16749759018421173,-9.839286804199219,-0.6532405614852905
1788679060127871000,18.21887109375,-0.1746760457754135,-9.841679573059082,-0.6795616149902344
1788679060145152000,18.236152099609374,-0.1579262912273407,-9.841679573059082,-0.6436693072319031
1788679060162433000,18.25343310546875,-0.1579262912273407,-9.858428955078125,-0.6460621356964111
1788679060179714000,18.270714111328125,-0.13160525262355804,-9.851250648498535,-0.6364908218383789
1788679060196995000,18.2879951171875,-0.14835500717163086,-9.839286804199219,-0.6484549641609192
1788679060214276000,18.305276123046873,-0.16749759018421173,-9.853643417358398,-0.6771687865257263
1788679060231557000,18.32255712890625,-0.12921242415905,-9.841679573059082,-0.7250252366065979
1788679060248838100,18.339838134765625,-0.10767702013254166,-9.856036186218262,-0.7250252366065979
1788679060266119400,18.357119384765625,-0.0933200865983963,-9.827322959899902,-0.6939185857772827
1788679060283400400,18.374400390625,-0.11485548317432404,-9.817750930786133,-0.6747759580612183
1788679060300681500,18.391681396484376,-0.12681959569454193,-9.812965393066406,-0.6340979933738708
1788679060317962500,18.40896240234375,-0.11724831163883209,-9.822537422180176,-0.6819544434547424
1788679060335243500,18.426243408203124,-0.09092725813388824,-9.822537422180176,-0.729810893535614
1788679060352524500,18.443524658203124,-0.07657032459974289,-9.856036186218262,-0.7034898400306702
1788679060369805600,18.4608056640625,-0.08135596662759781,-9.856036186218262,-0.6819544434547424
1788679060387086600,18.478086669921876,-0.11724831163883209,-9.841679573059082,-0.6795616149902344
1788679060404367600,18.49536767578125,-0.14356936514377594,-9.827322959899902,-0.6628118753433228
1788679060421649000,18.51264892578125,-0.13160525262355804,-9.841679573059082,-0.6675975322723389
1788679060438930000,18.529929931640623,-0.11006984114646912,-9.836894035339355,-0.6604190468788147
1788679060456211000,18.5472109375,-0.12203395366668701,-9.836894035339355,-0.6484549641609192
1788679060473492000,18.564491943359375,-0.1339980661869049,-9.841679573059082,-0.638883650302887
1788679060490773000,18.58177294921875,-0.13878370821475983,-9.827322959899902,-0.6604190468788147
1788679060508054000,18.599053955078126,-0.13160525262355804,-9.839286804199219,-0.6747759580612183
1788679060525335000,18.6163349609375,-0.12203395366668701,-9.841679573059082,-0.6699903607368469
1788679060542616000,18.633615966796874,-0.10049854964017868,-9.834501266479492,-0.7130611538887024
1788679060559897300,18.6508974609375,-0.08853443711996078,-9.839286804199219,-0.7345965504646301
1788679060577178400,18.668178466796874,-0.08374879509210587,-9.836894035339355,-0.7322037220001221
1788679060594459400,18.68545947265625,-0.1052841991186142,-9.836894035339355,-0.6963114142417908
1788679060611740400,18.702740478515626,-0.1339980661869049,-9.832108497619629,-0.6652047038078308
1788679060629021400,18.720021484375,-0.11964113265275955,-9.853643417358398,-0.641276478767395
1788679060646302500,18.737302490234374,-0.12442677468061447,-9.848857879638672,-0.638883650302887
1788679060663583500,18.75458349609375,-0.14356936514377594,-9.846465110778809,-0.6460621356964111
1788679060680864500,18.771864501953125,-0.13878370821475983,-9.851250648498535,-0.6484549641609192
1788679060698145500,18.7891455078125,-0.13160525262355804,-9.848857879638672,-0.6508477330207825
1788679060715426800,18.8064267578125,-0.15074782073497772,-9.832108497619629,-0.6580262184143066
1788679060732707800,18.823707763671877,-0.12921242415905,-9.829715728759766,-0.6604190468788147
1788679060749988900,18.84098876953125,-0.11724831163883209,-9.848857879638672,-0.6580262184143066
1788679060767270000,18.858269775390625,-0.12681959569454193,-9.836894035339355,-0.6747759580612183
1788679060784551000,18.875551025390624,-0.12203395366668701,-9.834501266479492,-0.6747759580612183
1788679060801832000,18.89283203125,-0.10767702013254166,-9.827322959899902,-0.638883650302887
1788679060819113000,18.910113037109376,-0.12203395366668701,-9.834501266479492,-0.6484549641609192
1788679060836394000,18.92739404296875,-0.13878370821475983,-9.841679573059082,-0.641276478767395
1788679060853675000,18.944675048828124,-0.14117653667926788,-9.853643417358398,-0.6364908218383789
1788679060870956000,18.9619560546875,-0.14356936514377594,-9.853643417358398,-0.6293123364448547
1788679060888237000,18.979237060546875,-0.14356936514377594,-9.834501266479492,-0.605384111404419
1788679060905518000,18.99651806640625,-0.15074782073497772,-9.839286804199219,-0.6005984544754028
1788679060922799000,19.013799072265623,-0.14117653667926788,-9.836894035339355,-0.6245267391204834
1788679060940080000,19.031080078125,-0.12203395366668701,-9.829715728759766,-0.6436693072319031
1788679060957361400,19.048361328125,-0.11964113265275955,-9.836894035339355,-0.672383189201355
1788679060974642400,19.065642333984375,-0.10049854964017868,-9.851250648498535,-0.6915257573127747
1788679060991923500,19.08292333984375,-0.08374879509210587,-9.836894035339355,-0.7130611538887024
1788679061009204500,19.10020458984375,-0.08135596662759781,-9.839286804199219,-0.7106683254241943
1788679061026485500,19.117485595703126,-0.08374879509210587,-9.827322959899902,-0.6963114142417908
1788679061043766500,19.1347666015625,-0.10767702013254166,-9.820143699645996,-0.6771687865257263
1788679061061047600,19.152047607421874,-0.11964113265275955,-9.836894035339355,-0.6628118753433228
1788679061078328600,19.16932861328125,-0.11246266216039658,-9.822537422180176,-0.6460621356964111
1788679061095609600,19.186609619140626,-0.12203395366668701,-9.832108497619629,-0.6436693072319031
1788679061112890600,19.203890625,-0.12681959569454193,-9.827322959899902,-0.6293123364448547
1788679061130171600,19.221171630859374,-0.12921242415905,-9.836894035339355,-0.641276478767395
1788679061147452700,19.23845263671875,-0.1339980661869049,-9.853643417358398,-0.6628118753433228
1788679061164733700,19.255733642578125,-0.12921242415905,-9.848857879638672,-0.6556333899497986
1788679061182014700,19.2730146484375,-0.11485548317432404,-9.846465110778809,-0.6652047038078308
1788679061199295700,19.290295654296877,-0.12203395366668701,-9.839286804199219,-0.6747759580612183
1788679061216577000,19.307576904296877,-0.11006984114646912,-9.846465110778809,-0.672383189201355
1788679061233858000,19.324858154296876,-0.11485548317432404,-9.834501266479492,-0.6795616149902344
1788679061251139000,19.34213916015625,-0.11006984114646912,-9.834501266479492,-0.6819544434547424
1788679061268420000,19.359420166015624,-0.12203395366668701,-9.829715728759766,-0.6771687865257263
1788679061285701000,19.376701171875,-0.12442677468061447,-9.832108497619629,-0.6580262184143066
1788679061302982100,19.393982177734376,-0.1052841991186142,-9.858428955078125,-0.6747759580612183
1788679061320263200,19.41126318359375,-0.11006984114646912,-9.841679573059082,-0.672383189201355
1788679061337544200,19.428544189453124,-0.11006984114646912,-9.839286804199219,-0.6699903607368469
1788679061354825200,19.4458251953125,-0.10289137065410614,-9.839286804199219,-0.672383189201355
1788679061372106200,19.463106201171875,-0.11246266216039658,-9.834501266479492,-0.6675975322723389
1788679061389387300,19.48038720703125,-0.11964113265275955,-9.820143699645996,-0.6436693072319031
1788679061406668300,19.497668212890623,-0.14356936514377594,-9.81535816192627,-0.6245267391204834
1788679061423949300,19.51494921875,-0.14356936514377594,-9.848857879638672,-0.6293123364448547
1788679061441230300,19.532230224609375,-0.16271193325519562,-9.868000984191895,-0.6436693072319031
1788679061458511400,19.549511474609375,-0.17706887423992157,-9.856036186218262,-0.6293123364448547
1788679061475792400,19.56679248046875,-0.1698904037475586,-9.851250648498535,-0.672383189201355
1788679061493073400,19.584073486328126,-0.1579262912273407,-9.851250648498535,-0.7010970115661621
1788679061510354400,19.6013544921875,-0.10289137065410614,-9.834501266479492,-0.727418065071106
1788679061527635500,19.618635498046874,-0.10289137065410614,-9.832108497619629,-0.7202396392822266
1788679061544916500,19.63591650390625,-0.08374879509210587,-9.817750930786133,-0.6939185857772827
1788679061562197800,19.65319775390625,-0.09092725813388824,-9.80817985534668,-0.6963114142417908
1788679061579478800,19.670478759765626,-0.11485548317432404,-9.817750930786133,-0.7178468108177185
1788679061596759600,19.687759521484374,-0.11006984114646912,-9.834501266479492,-0.7106683254241943
1788679061614040600,19.70504052734375,-0.13639089465141296,-9.844072341918945,-0.6771687865257263
1788679061631321600,19.722321533203125,-0.13878370821475983,-9.844072341918945,-0.6508477330207825
1788679061648602600,19.7396025390625,-0.1459621787071228,-9.853643417358398,-0.6604190468788147
1788679061665884000,19.7568837890625,-0.14356936514377594,-9.851250648498535,-0.6460621356964111
1788679061683165000,19.7741650390625,-0.15314064919948578,-9.829715728759766,-0.641276478767395
1788679061700446000,19.791446044921877,-0.16749759018421173,-9.836894035339355,-0.6460621356964111
1788679061717726700,19.808726806640625,-0.16031911969184875,-9.836894035339355,-0.6508477330207825
1788679061735007700,19.8260078125,-0.15314064919948578,-9.834501266479492,-0.6699903607368469
1788679061752288800,19.843288818359376,-0.14356936514377594,-9.832108497619629,-0.6867401003837585
1788679061769570000,19.860570068359376,-0.11246266216039658,-9.851250648498535,-0.7010970115661621
1788679061786851000,19.87785107421875,-0.11964113265275955,-9.836894035339355,-0.7154539823532104
1788679061804132000,19.895132080078124,-0.10049854964017868,-9.829715728759766,-0.7345965504646301
1788679061821413000,19.9124130859375,-0.11724831163883209,-9.836894035339355,-0.7513462901115417
1788679061838694000,19.92969384765625,-0.10289137065410614,-9.841679573059082,-0.727418065071106
1788679061855975000,19.946974853515623,-0.09092725813388824,-9.822537422180176,-0.7082754969596863
1788679061873256200,19.964256103515623,-0.09810572862625122,-9.829715728759766,-0.6939185857772827
1788679061890537200,19.981537109375,-0.09092725813388824,-9.839286804199219,-0.638883650302887
1788679061907818200,19.998818359375,-0.08853443711996078,-9.829715728759766,-0.638883650302887
1788679061925099300,20.016099365234375,-0.08614161610603333,-9.832108497619629,-0.6484549641609192
1788679061942380300,20.03338037109375,-0.08135596662759781,-9.836894035339355,-0.6628118753433228
1788679061959661000,20.0506611328125,-0.09092725813388824,-9.832108497619629,-0.7082754969596863
1788679061976942300,20.0679423828125,-0.10049854964017868,-9.834501266479492,-0.7130611538887024
1788679061994223400,20.085223388671874,-0.10289137065410614,-9.832108497619629,-0.698704183101654
1788679062011504400,20.10250439453125,-0.11485548317432404,-9.848857879638672,-0.6867401003837585
1788679062028785400,20.119785400390626,-0.11724831163883209,-9.853643417358398,-0.6795616149902344
1788679062046066200,20.137066162109374,-0.1339980661869049,-9.841679573059082,-0.7034898400306702
1788679062063347200,20.15434716796875,-0.12681959569454193,-9.839286804199219,-0.6891329288482666
1788679062080628500,20.17162841796875,-0.1052841991186142,-9.841679573059082,-0.6747759580612183
1788679062097909500,20.188909423828125,-0.07896314561367035,-9.858428955078125,-0.7058826684951782
1788679062115190500,20.2061904296875,-0.062213387340307236,-9.846465110778809,-0.7250252366065979
1788679062132471300,20.22347119140625,-0.07178468257188797,-9.839286804199219,-0.7226324677467346
1788679062149752300,20.24075244140625,-0.06699903309345245,-9.834501266479492,-0.7441678643226624
1788679062167033300,20.258033447265625,-0.04307080805301666,-9.844072341918945,-0.7345965504646301
1788679062184314600,20.275314697265625,-0.02632104977965355,-9.858428955078125,-0.763310432434082
1788679062201595600,20.292595703125,-0.05503492057323456,-9.860821723937988,-0.7920243144035339
1788679062218876400,20.30987646484375,-0.05503492057323456,-9.841679573059082,-0.7776673436164856
1788679062236157400,20.327157470703124,-0.08374879509210587,-9.810572624206543,-0.7202396392822266
1788679062253438500,20.3444384765625,-0.11724831163883209,-9.820143699645996,-0.6604190468788147
1788679062270719700,20.3617197265625,-0.11724831163883209,-9.824930191040039,-0.6460621356964111
1788679062288000500,20.37900048828125,-0.16749759018421173,-9.832108497619629,-0.6628118753433228
1788679062305281500,20.396281494140624,-0.1866401731967926,-9.856036186218262,-0.6604190468788147
1788679062322562600,20.4135625,-0.1818545162677765,-9.841679573059082,-0.6532405614852905
1788679062339843600,20.430843505859375,-0.16271193325519562,-9.836894035339355,-0.6125625967979431
1788679062357124600,20.44812451171875,-0.13639089465141296,-9.839286804199219,-0.6101697683334351
1788679062374405600,20.465405517578127,-0.11724831163883209,-9.832108497619629,-0.6364908218383789
1788679062391686700,20.482686767578127,-0.09571290761232376,-9.820143699645996,-0.6652047038078308
1788679062408967700,20.4999677734375,-0.062213387340307236,-9.834501266479492,-0.672383189201355
1788679062426248700,20.517248779296875,-0.064606212079525,-9.844072341918945,-0.6843472719192505
1788679062443529700,20.53452978515625,-0.06939185410737991,-9.829715728759766,-0.6963114142417908
1788679062460810800,20.551810791015626,-0.10767702013254166,-9.836894035339355,-0.7226324677467346
1788679062478091800,20.569091796875,-0.13160525262355804,-9.844072341918945,-0.7130611538887024
1788679062495372800,20.586372802734374,-0.14835500717163086,-9.853643417358398,-0.6843472719192505
1788679062512653800,20.60365380859375,-0.1459621787071228,-9.858428955078125,-0.6771687865257263
1788679062529934800,20.620934814453125,-0.15314064919948578,-9.863214492797852,-0.6819544434547424
1788679062547216000,20.6382158203125,-0.1459621787071228,-9.860821723937988,-0.6699903607368469
1788679062564497000,20.655496826171873,-0.14117653667926788,-9.841679573059082,-0.6508477330207825
1788679062581778000,20.67277783203125,-0.18903298676013947,-9.839286804199219,-0.6293123364448547
1788679062599058700,20.69005859375,-0.18424734473228455,-9.824930191040039,-0.6460621356964111
1788679062616339700,20.707339599609377,-0.14835500717163086,-9.841679573059082,-0.6604190468788147
1788679062633620700,20.724620849609376,-0.12681959569454193,-9.853643417358398,-0.6915257573127747
1788679062650901800,20.74190185546875,-0.08853443711996078,-9.832108497619629,-0.7226324677467346
1788679062668182800,20.759182861328124,-0.08853443711996078,-9.829715728759766,-0.7537391185760498
1788679062685463800,20.7764638671875,-0.09810572862625122,-9.822537422180176,-0.7704889178276062
1788679062702744800,20.793744873046876,-0.07417750358581543,-9.817750930786133,-0.7489534616470337
1788679062720025900,20.81102587890625,-0.059820566326379776,-9.81535816192627,-0.7345965504646301
1788679062737307000,20.828306884765624,-0.07417750358581543,-9.832108497619629,-0.7178468108177185
1788679062754588000,20.845587890625,-0.07417750358581543,-9.839286804199219,-0.7178468108177185
1788679062771869000,20.862868896484375,-0.11485548317432404,-9.839286804199219,-0.6915257573127747
1788679062789150000,20.88014990234375,-0.13160525262355804,-9.841679573059082,-0.6747759580612183
1788679062806431000,20.897430908203123,-0.10767702013254166,-9.836894035339355,-0.6436693072319031
1788679062823712000,20.9147119140625,-0.13160525262355804,-9.856036186218262,-0.6532405614852905
1788679062840992800,20.93199267578125,-0.13160525262355804,-9.856036186218262,-0.6484549641609192
1788679062858273800,20.949273681640626,-0.15553347766399384,-9.851250648498535,-0.6508477330207825
1788679062875554800,20.966554931640626,-0.15553347766399384,-9.839286804199219,-0.6628118753433228
1788679062892835800,20.9838359375,-0.1746760457754135,-9.827322959899902,-0.6436693072319031
1788679062910116900,21.001116943359374,-0.1818545162677765,-9.853643417358398,-0.6652047038078308
1788679062927398000,21.01839794921875,-0.2105683982372284,-9.879964828491211,-0.7010970115661621
1788679062944679000,21.035678955078126,-0.19621145725250244,-9.879964828491211,-0.7441678643226624
1788679062961960000,21.0529599609375,-0.13878370821475983,-9.846465110778809,-0.7489534616470337
1788679062979241000,21.070240966796874,-0.08614161610603333,-9.820143699645996,-0.7513462901115417
1788679062996522000,21.08752197265625,-0.09810572862625122,-9.817750930786133,-0.760917603969574
1788679063013803000,21.104802978515625,-0.11246266216039658,-9.81535816192627,-0.7322037220001221
1788679063031083800,21.122083740234373,-0.11964113265275955,-9.798608779907227,-0.6747759580612183
1788679063048365000,21.139364990234377,-0.14356936514377594,-9.817750930786133,-0.6340979933738708
1788679063065645800,21.156645751953125,-0.13160525262355804,-9.834501266479492,-0.5910272002220154
1788679063082926800,21.1739267578125,-0.16031911969184875,-9.841679573059082,-0.550349235534668
1788679063100207900,21.191207763671876,-0.18424734473228455,-9.841679573059082,-0.5455635786056519
1788679063117489000,21.208489013671876,-0.20099709928035736,-9.841679573059082,-0.5670989751815796
1788679063134770000,21.22577001953125,-0.20578274130821228,-9.834501266479492,-0.5958128571510315
1788679063152051000,21.243051025390624,-0.19142581522464752,-9.848857879638672,-0.5934200286865234
1788679063169332000,21.26033203125,-0.1746760457754135,-9.846465110778809,-0.6005984544754028
1788679063186612700,21.27761279296875,-0.12203395366668701,-9.829715728759766,-0.6149554252624512
1788679063203894000,21.29489404296875,-0.12442677468061447,-9.832108497619629,-0.6364908218383789
1788679063221174800,21.3121748046875,-0.12681959569454193,-9.829715728759766,-0.672383189201355
1788679063238455800,21.329455810546875,-0.15074782073497772,-9.829715728759766,-0.6747759580612183
1788679063255736800,21.34673681640625,-0.16749759018421173,-9.836894035339355,-0.6891329288482666
1788679063273017900,21.364017822265627,-0.1746760457754135,-9.846465110778809,-0.6556333899497986
1788679063290299000,21.381298828125,-0.18424734473228455,-9.848857879638672,-0.6508477330207825
1788679063307580000,21.398579833984375,-0.19381862878799438,-9.834501266479492,-0.638883650302887
1788679063324860700,21.415860595703126,-0.20338992774486542,-9.846465110778809,-0.6317051649093628
1788679063342141700,21.4331416015625,-0.20338992774486542,-9.839286804199219,-0.641276478767395
1788679063359422700,21.450422607421874,-0.23688943684101105,-9.848857879638672,-0.641276478767395
1788679063376703700,21.467703857421874,-0.24167509377002716,-9.856036186218262,-0.6484549641609192
1788679063393984800,21.48498486328125,-0.24646073579788208,-9.846465110778809,-0.6436693072319031
1788679063411265800,21.502265869140626,-0.2584248483181,-9.827322959899902,-0.605384111404419
1788679063428546800,21.519546875,-0.2392822653055191,-9.839286804199219,-0.6245267391204834
1788679063445827800,21.536827880859374,-0.2105683982372284,-9.834501266479492,-0.6149554252624512
1788679063463108900,21.55410888671875,-0.18903298676013947,-9.832108497619629,-0.6173482537269592
1788679063480389600,21.5713896484375,-0.17228323221206665,-9.832108497619629,-0.6197410821914673
1788679063497670700,21.588670654296877,-0.17946170270442963,-9.827322959899902,-0.6317051649093628
1788679063514951700,21.60595166015625,-0.1818545162677765,-9.827322959899902,-0.638883650302887
1788679063532232700,21.623232666015625,-0.1986042857170105,-9.827322959899902,-0.6508477330207825
